Time,Header.seq,Header.stamp.secs,Header.stamp.nsecs,Header.frame_id,IMU.header.seq,IMU.header.stamp.secs,IMU.header.stamp.nsecs,IMU.header.frame_id,IMU.orientation.x,IMU.orientation.y,IMU.orientation.z,IMU.orientation.w,IMU.orientation_covariance,IMU.angular_velocity.x,IMU.angular_velocity.y,IMU.angular_velocity.z,IMU.angular_velocity_covariance,IMU.linear_acceleration.x,IMU.linear_acceleration.y,IMU.linear_acceleration.z,IMU.linear_acceleration_covariance,MagField.header.seq,MagField.header.stamp.secs,MagField.header.stamp.nsecs,MagField.header.frame_id,MagField.magnetic_field.x,MagField.magnetic_field.y,MagField.magnetic_field.z,MagField.magnetic_field_covariance,VNYMR
1678087502.430977,0,1678087502,424912214,imu1_frame,0,0,0,,0.05814333686958066,-0.026605687402671396,0.030184420329892565,0.9974970629254255,"(0.0, 0.0, 0.0, 0.0, 0.0, 0.0, 0.0, 0.0, 0.0)",0.000692,0.000422,-0.008064,"(0.0, 0.0, 0.0, 0.0, 0.0, 0.0, 0.0, 0.0, 0.0)",-0.499,-1.143,-10.302,"(0.0, 0.0, 0.0, 0.0, 0.0, 0.0, 0.0, 0.0, 0.0)",0,0,0,,0.2527,0.1628,0.3394,"(0.0, 0.0, 0.0, 0.0, 0.0, 0.0, 0.0, 0.0, 0.0)","b'$VNYMR,+003.280,-003.244,+006.579,+00.2527,+00.1628,+00.3394,-00.499,-01.143,-10.302,+00.000692,+00.000422,-00.008064*6F\r\n'"
1678087502.4539192,0,1678087502,449750900,imu1_frame,0,0,0,,0.05817731414544926,-0.026440920047312848,0.02999290563980872,0.9975052398244105,"(0.0, 0.0, 0.0, 0.0, 0.0, 0.0, 0.0, 0.0, 0.0)",0.000939,0.0126,-0.024209,"(0.0, 0.0, 0.0, 0.0, 0.0, 0.0, 0.0, 0.0, 0.0)",-0.519,-1.173,-10.231,"(0.0, 0.0, 0.0, 0.0, 0.0, 0.0, 0.0, 0.0, 0.0)",0,0,0,,0.251,0.1664,0.3403,"(0.0, 0.0, 0.0, 0.0, 0.0, 0.0, 0.0, 0.0, 0.0)","b'$VNYMR,+003.259,-003.224,+006.584,+00.2510,+00.1664,+00.3403,-00.519,-01.173,-10.231,+00.000939,+00.012600,-00.024209*69\r\n'"
1678087502.4800072,0,1678087502,474948883,imu1_frame,0,0,0,,0.058201508843892795,-0.0263158202871283,0.02972477552375263,0.9975151626371263,"(0.0, 0.0, 0.0, 0.0, 0.0, 0.0, 0.0, 0.0, 0.0)",0.001643,0.002461,-0.013806,"(0.0, 0.0, 0.0, 0.0, 0.0, 0.0, 0.0, 0.0, 0.0)",-0.512,-1.073,-10.015,"(0.0, 0.0, 0.0, 0.0, 0.0, 0.0, 0.0, 0.0, 0.0)",0,0,0,,0.2519,0.1682,0.3403,"(0.0, 0.0, 0.0, 0.0, 0.0, 0.0, 0.0, 0.0, 0.0)","b'$VNYMR,+003.229,-003.208,+006.588,+00.2519,+00.1682,+00.3403,-00.512,-01.073,-10.015,+00.001643,+00.002461,-00.013806*65\r\n'"
1678087502.504063,0,1678087502,499929428,imu1_frame,0,0,0,,0.058055607659831934,-0.026417006987723462,0.029708882577463076,0.9975214636573274,"(0.0, 0.0, 0.0, 0.0, 0.0, 0.0, 0.0, 0.0, 0.0)",-0.017177,-0.006304,0.003487,"(0.0, 0.0, 0.0, 0.0, 0.0, 0.0, 0.0, 0.0, 0.0)",-0.525,-1.207,-10.19,"(0.0, 0.0, 0.0, 0.0, 0.0, 0.0, 0.0, 0.0, 0.0)",0,0,0,,0.2545,0.1618,0.3366,"(0.0, 0.0, 0.0, 0.0, 0.0, 0.0, 0.0, 0.0, 0.0)","b'$VNYMR,+003.227,-003.219,+006.571,+00.2545,+00.1618,+00.3366,-00.525,-01.207,-10.190,-00.017177,-00.006304,+00.003487*6F\r\n'"
1678087502.5282974,0,1678087502,524801492,imu1_frame,0,0,0,,0.057993288825962976,-0.026412646371402143,0.029663251200313427,0.9975265620979898,"(0.0, 0.0, 0.0, 0.0, 0.0, 0.0, 0.0, 0.0, 0.0)",0.000712,0.000842,-0.001587,"(0.0, 0.0, 0.0, 0.0, 0.0, 0.0, 0.0, 0.0, 0.0)",-0.547,-1.237,-10.228,"(0.0, 0.0, 0.0, 0.0, 0.0, 0.0, 0.0, 0.0, 0.0)",0,0,0,,0.2545,0.1618,0.3415,"(0.0, 0.0, 0.0, 0.0, 0.0, 0.0, 0.0, 0.0, 0.0)","b'$VNYMR,+003.222,-003.218,+006.564,+00.2545,+00.1618,+00.3415,-00.547,-01.237,-10.228,+00.000712,+00.000842,-00.001587*62\r\n'"
1678087502.5547926,0,1678087502,549764633,imu1_frame,0,0,0,,0.05799509073659882,-0.026307815377508405,0.029509093404891065,0.9975337997817109,"(0.0, 0.0, 0.0, 0.0, 0.0, 0.0, 0.0, 0.0, 0.0)",-0.00235,0.010036,-0.013646,"(0.0, 0.0, 0.0, 0.0, 0.0, 0.0, 0.0, 0.0, 0.0)",-0.568,-1.228,-10.212,"(0.0, 0.0, 0.0, 0.0, 0.0, 0.0, 0.0, 0.0, 0.0)",0,0,0,,0.2527,0.1637,0.3404,"(0.0, 0.0, 0.0, 0.0, 0.0, 0.0, 0.0, 0.0, 0.0)","b'$VNYMR,+003.205,-003.205,+006.565,+00.2527,+00.1637,+00.3404,-00.568,-01.228,-10.212,-00.002350,+00.010036,-00.013646*68\r\n'"
1678087502.5796952,0,1678087502,574809312,imu1_frame,0,0,0,,0.057989133695391167,-0.026192005246745795,0.029397736492815667,0.9975404815462436,"(0.0, 0.0, 0.0, 0.0, 0.0, 0.0, 0.0, 0.0, 0.0)",0.003967,0.010293,-0.008435,"(0.0, 0.0, 0.0, 0.0, 0.0, 0.0, 0.0, 0.0, 0.0)",-0.616,-1.206,-10.269,"(0.0, 0.0, 0.0, 0.0, 0.0, 0.0, 0.0, 0.0, 0.0)",0,0,0,,0.2554,0.1682,0.3414,"(0.0, 0.0, 0.0, 0.0, 0.0, 0.0, 0.0, 0.0, 0.0)","b'$VNYMR,+003.193,-003.191,+006.565,+00.2554,+00.1682,+00.3414,-00.616,-01.206,-10.269,+00.003967,+00.010293,-00.008435*63\r\n'"
1678087502.6201522,0,1678087502,600047111,imu1_frame,0,0,0,,0.05806843244401483,-0.026040841052325736,0.029251859268068895,0.9975441145534085,"(0.0, 0.0, 0.0, 0.0, 0.0, 0.0, 0.0, 0.0, 0.0)",0.008791,0.010312,-0.016983,"(0.0, 0.0, 0.0, 0.0, 0.0, 0.0, 0.0, 0.0, 0.0)",-0.605,-1.152,-10.188,"(0.0, 0.0, 0.0, 0.0, 0.0, 0.0, 0.0, 0.0, 0.0)",0,0,0,,0.2528,0.1646,0.3472,"(0.0, 0.0, 0.0, 0.0, 0.0, 0.0, 0.0, 0.0, 0.0)","b'$VNYMR,+003.177,-003.173,+006.575,+00.2528,+00.1646,+00.3472,-00.605,-01.152,-10.188,+00.008791,+00.010312,-00.016983*60\r\n'"
1678087502.66432,0,1678087502,624791145,imu1_frame,0,0,0,,0.05812618624912543,-0.025944810259538906,0.029221901273958795,0.9975441312436575,"(0.0, 0.0, 0.0, 0.0, 0.0, 0.0, 0.0, 0.0, 0.0)",0.004701,0.01023,-0.000922,"(0.0, 0.0, 0.0, 0.0, 0.0, 0.0, 0.0, 0.0, 0.0)",-0.58,-1.113,-10.068,"(0.0, 0.0, 0.0, 0.0, 0.0, 0.0, 0.0, 0.0, 0.0)",0,0,0,,0.2536,0.1637,0.3414,"(0.0, 0.0, 0.0, 0.0, 0.0, 0.0, 0.0, 0.0, 0.0)","b'$VNYMR,+003.174,-003.162,+006.582,+00.2536,+00.1637,+00.3414,-00.580,-01.113,-10.068,+00.004701,+00.010230,-00.000922*6E\r\n'"
1678087502.6643817,0,1678087502,649797439,imu1_frame,0,0,0,,0.05801279357051656,-0.026022329833886595,0.029144553847708254,0.9975509756965701,"(0.0, 0.0, 0.0, 0.0, 0.0, 0.0, 0.0, 0.0, 0.0)",-0.005297,0.000704,-0.001695,"(0.0, 0.0, 0.0, 0.0, 0.0, 0.0, 0.0, 0.0, 0.0)",-0.566,-0.988,-10.124,"(0.0, 0.0, 0.0, 0.0, 0.0, 0.0, 0.0, 0.0, 0.0)",0,0,0,,0.2536,0.1664,0.3414,"(0.0, 0.0, 0.0, 0.0, 0.0, 0.0, 0.0, 0.0, 0.0)","b'$VNYMR,+003.165,-003.170,+006.569,+00.2536,+00.1664,+00.3414,-00.566,-00.988,-10.124,-00.005297,+00.000704,-00.001695*68\r\n'"
1678087502.7081368,0,1678087502,674739599,imu1_frame,0,0,0,,0.058028549954891706,-0.0261261389924289,0.029307884025991094,0.9975425605884694,"(0.0, 0.0, 0.0, 0.0, 0.0, 0.0, 0.0, 0.0, 0.0)",0.001358,-0.017365,0.00751,"(0.0, 0.0, 0.0, 0.0, 0.0, 0.0, 0.0, 0.0, 0.0)",-0.628,-1.161,-10.094,"(0.0, 0.0, 0.0, 0.0, 0.0, 0.0, 0.0, 0.0, 0.0)",0,0,0,,0.2519,0.1673,0.3383,"(0.0, 0.0, 0.0, 0.0, 0.0, 0.0, 0.0, 0.0, 0.0)","b'$VNYMR,+003.183,-003.183,+006.570,+00.2519,+00.1673,+00.3383,-00.628,-01.161,-10.094,+00.001358,-00.017365,+00.007510*66\r\n'"
1678087502.708168,0,1678087502,699888706,imu1_frame,0,0,0,,0.05794858290635012,-0.02627883055509439,0.02942763058905747,0.9975396730765731,"(0.0, 0.0, 0.0, 0.0, 0.0, 0.0, 0.0, 0.0, 0.0)",-0.005342,-0.002407,0.015009,"(0.0, 0.0, 0.0, 0.0, 0.0, 0.0, 0.0, 0.0, 0.0)",-0.582,-1.176,-10.347,"(0.0, 0.0, 0.0, 0.0, 0.0, 0.0, 0.0, 0.0, 0.0)",0,0,0,,0.2527,0.1628,0.3385,"(0.0, 0.0, 0.0, 0.0, 0.0, 0.0, 0.0, 0.0, 0.0)","b'$VNYMR,+003.196,-003.201,+006.560,+00.2527,+00.1628,+00.3385,-00.582,-01.176,-10.347,-00.005342,-00.002407,+00.015009*67\r\n'"
1678087502.7521687,0,1678087502,724836349,imu1_frame,0,0,0,,0.05801501380976811,-0.026228034205128443,0.029671008600619598,0.9975299392213793,"(0.0, 0.0, 0.0, 0.0, 0.0, 0.0, 0.0, 0.0, 0.0)",0.002088,0.005355,0.020581,"(0.0, 0.0, 0.0, 0.0, 0.0, 0.0, 0.0, 0.0, 0.0)",-0.595,-1.301,-10.193,"(0.0, 0.0, 0.0, 0.0, 0.0, 0.0, 0.0, 0.0, 0.0)",0,0,0,,0.2536,0.1673,0.3413,"(0.0, 0.0, 0.0, 0.0, 0.0, 0.0, 0.0, 0.0, 0.0)","b'$VNYMR,+003.224,-003.197,+006.567,+00.2536,+00.1673,+00.3413,-00.595,-01.301,-10.193,+00.002088,+00.005355,+00.020581*69\r\n'"
1678087502.7537763,0,1678087502,749766588,imu1_frame,0,0,0,,0.058089012397593766,-0.02624396972759183,0.029813599703784947,0.9975209621678693,"(0.0, 0.0, 0.0, 0.0, 0.0, 0.0, 0.0, 0.0, 0.0)",0.000862,-0.002858,0.019178,"(0.0, 0.0, 0.0, 0.0, 0.0, 0.0, 0.0, 0.0, 0.0)",-0.517,-1.215,-10.154,"(0.0, 0.0, 0.0, 0.0, 0.0, 0.0, 0.0, 0.0, 0.0)",0,0,0,,0.2527,0.161,0.3424,"(0.0, 0.0, 0.0, 0.0, 0.0, 0.0, 0.0, 0.0, 0.0)","b'$VNYMR,+003.240,-003.200,+006.575,+00.2527,+00.1610,+00.3424,-00.517,-01.215,-10.154,+00.000862,-00.002858,+00.019178*60\r\n'"
1678087502.7962048,0,1678087502,774739265,imu1_frame,0,0,0,,0.05809849328141238,-0.026398225992633802,0.030014478270427233,0.9975103156544425,"(0.0, 0.0, 0.0, 0.0, 0.0, 0.0, 0.0, 0.0, 0.0)",-0.004149,-0.014829,0.01115,"(0.0, 0.0, 0.0, 0.0, 0.0, 0.0, 0.0, 0.0, 0.0)",-0.493,-1.287,-10.197,"(0.0, 0.0, 0.0, 0.0, 0.0, 0.0, 0.0, 0.0, 0.0)",0,0,0,,0.2536,0.1619,0.3414,"(0.0, 0.0, 0.0, 0.0, 0.0, 0.0, 0.0, 0.0, 0.0)","b'$VNYMR,+003.262,-003.219,+006.575,+00.2536,+00.1619,+00.3414,-00.493,-01.287,-10.197,-00.004149,-00.014829,+00.011150*6A\r\n'"
1678087502.844181,0,1678087502,799683809,imu1_frame,0,0,0,,0.05812832249676183,-0.026453814799173154,0.030096966352008137,0.9975046197500488,"(0.0, 0.0, 0.0, 0.0, 0.0, 0.0, 0.0, 0.0, 0.0)",0.001651,-0.007395,0.00552,"(0.0, 0.0, 0.0, 0.0, 0.0, 0.0, 0.0, 0.0, 0.0)",-0.549,-1.272,-10.132,"(0.0, 0.0, 0.0, 0.0, 0.0, 0.0, 0.0, 0.0, 0.0)",0,0,0,,0.2536,0.1618,0.3395,"(0.0, 0.0, 0.0, 0.0, 0.0, 0.0, 0.0, 0.0, 0.0)","b'$VNYMR,+003.271,-003.226,+006.578,+00.2536,+00.1618,+00.3395,-00.549,-01.272,-10.132,+00.001651,-00.007395,+00.005520*60\r\n'"
1678087502.844219,0,1678087502,824822187,imu1_frame,0,0,0,,0.05814644203925343,-0.026497832658722485,0.030082485414036554,0.997502832183388,"(0.0, 0.0, 0.0, 0.0, 0.0, 0.0, 0.0, 0.0, 0.0)",0.002266,-0.000941,-0.006834,"(0.0, 0.0, 0.0, 0.0, 0.0, 0.0, 0.0, 0.0, 0.0)",-0.527,-1.242,-10.211,"(0.0, 0.0, 0.0, 0.0, 0.0, 0.0, 0.0, 0.0, 0.0)",0,0,0,,0.2501,0.1628,0.3413,"(0.0, 0.0, 0.0, 0.0, 0.0, 0.0, 0.0, 0.0, 0.0)","b'$VNYMR,+003.269,-003.231,+006.580,+00.2501,+00.1628,+00.3413,-00.527,-01.242,-10.211,+00.002266,-00.000941,-00.006834*65\r\n'"
1678087502.888244,0,1678087502,849754333,imu1_frame,0,0,0,,0.058225968110246495,-0.026585066625932387,0.030045983308701146,0.9974969723047448,"(0.0, 0.0, 0.0, 0.0, 0.0, 0.0, 0.0, 0.0, 0.0)",-0.000182,-0.012534,-0.007383,"(0.0, 0.0, 0.0, 0.0, 0.0, 0.0, 0.0, 0.0, 0.0)",-0.553,-1.309,-10.287,"(0.0, 0.0, 0.0, 0.0, 0.0, 0.0, 0.0, 0.0, 0.0)",0,0,0,,0.2519,0.1628,0.3404,"(0.0, 0.0, 0.0, 0.0, 0.0, 0.0, 0.0, 0.0, 0.0)","b'$VNYMR,+003.264,-003.241,+006.589,+00.2519,+00.1628,+00.3404,-00.553,-01.309,-10.287,-00.000182,-00.012534,-00.007383*6D\r\n'"
1678087502.8883028,0,1678087502,874670028,imu1_frame,0,0,0,,0.05837845087808817,-0.026442076794386194,0.03002482187168551,0.9974924977760224,"(0.0, 0.0, 0.0, 0.0, 0.0, 0.0, 0.0, 0.0, 0.0)",0.016151,0.0145,0.002538,"(0.0, 0.0, 0.0, 0.0, 0.0, 0.0, 0.0, 0.0, 0.0)",-0.583,-1.244,-10.197,"(0.0, 0.0, 0.0, 0.0, 0.0, 0.0, 0.0, 0.0, 0.0)",0,0,0,,0.2527,0.16,0.3404,"(0.0, 0.0, 0.0, 0.0, 0.0, 0.0, 0.0, 0.0, 0.0)","b'$VNYMR,+003.262,-003.225,+006.607,+00.2527,+00.1600,+00.3404,-00.583,-01.244,-10.197,+00.016151,+00.014500,+00.002538*61\r\n'"
1678087502.932202,0,1678087502,899759292,imu1_frame,0,0,0,,0.0585930626841276,-0.026414522681815985,0.02994205102741075,0.9974831324774658,"(0.0, 0.0, 0.0, 0.0, 0.0, 0.0, 0.0, 0.0, 0.0)",0.016967,-0.00451,-0.002924,"(0.0, 0.0, 0.0, 0.0, 0.0, 0.0, 0.0, 0.0, 0.0)",-0.52,-1.122,-10.08,"(0.0, 0.0, 0.0, 0.0, 0.0, 0.0, 0.0, 0.0, 0.0)",0,0,0,,0.2519,0.1637,0.3423,"(0.0, 0.0, 0.0, 0.0, 0.0, 0.0, 0.0, 0.0, 0.0)","b'$VNYMR,+003.252,-003.222,+006.632,+00.2519,+00.1637,+00.3423,-00.520,-01.122,-10.080,+00.016967,-00.004510,-00.002924*6E\r\n'"
1678087502.932321,0,1678087502,924694299,imu1_frame,0,0,0,,0.058866608643368616,-0.026444297683501438,0.03004744431987355,0.9974630682870914,"(0.0, 0.0, 0.0, 0.0, 0.0, 0.0, 0.0, 0.0, 0.0)",0.024405,-0.010337,0.00964,"(0.0, 0.0, 0.0, 0.0, 0.0, 0.0, 0.0, 0.0, 0.0)",-0.522,-1.139,-9.945,"(0.0, 0.0, 0.0, 0.0, 0.0, 0.0, 0.0, 0.0, 0.0)",0,0,0,,0.2527,0.1628,0.3385,"(0.0, 0.0, 0.0, 0.0, 0.0, 0.0, 0.0, 0.0, 0.0)","b'$VNYMR,+003.263,-003.227,+006.663,+00.2527,+00.1628,+00.3385,-00.522,-01.139,-09.945,+00.024405,-00.010337,+00.009640*6B\r\n'"
1678087502.9761972,0,1678087502,949686050,imu1_frame,0,0,0,,0.05902275867771112,-0.026762962636322492,0.030052494977377567,0.9974451891380469,"(0.0, 0.0, 0.0, 0.0, 0.0, 0.0, 0.0, 0.0, 0.0)",0.007076,-0.019316,-2.1e-05,"(0.0, 0.0, 0.0, 0.0, 0.0, 0.0, 0.0, 0.0, 0.0)",-0.537,-1.228,-10.342,"(0.0, 0.0, 0.0, 0.0, 0.0, 0.0, 0.0, 0.0, 0.0)",0,0,0,,0.2536,0.1646,0.3414,"(0.0, 0.0, 0.0, 0.0, 0.0, 0.0, 0.0, 0.0, 0.0)","b'$VNYMR,+003.261,-003.264,+006.680,+00.2536,+00.1646,+00.3414,-00.537,-01.228,-10.342,+00.007076,-00.019316,-00.000021*63\r\n'"
1678087502.9788048,0,1678087502,974740982,imu1_frame,0,0,0,,0.059178501554153475,-0.026769528941548833,0.030013679471780092,0.9974369535557713,"(0.0, 0.0, 0.0, 0.0, 0.0, 0.0, 0.0, 0.0, 0.0)",0.014086,0.00114,-0.011114,"(0.0, 0.0, 0.0, 0.0, 0.0, 0.0, 0.0, 0.0, 0.0)",-0.575,-1.331,-10.323,"(0.0, 0.0, 0.0, 0.0, 0.0, 0.0, 0.0, 0.0, 0.0)",0,0,0,,0.2544,0.1618,0.3337,"(0.0, 0.0, 0.0, 0.0, 0.0, 0.0, 0.0, 0.0, 0.0)","b'$VNYMR,+003.256,-003.265,+006.698,+00.2544,+00.1618,+00.3337,-00.575,-01.331,-10.323,+00.014086,+00.001140,-00.011114*6B\r\n'"
1678087503.020222,0,1678087502,999618530,imu1_frame,0,0,0,,0.05931694309064421,-0.02658340036160154,0.02984118908473803,0.9974388836022009,"(0.0, 0.0, 0.0, 0.0, 0.0, 0.0, 0.0, 0.0, 0.0)",0.014017,0.024976,-0.013964,"(0.0, 0.0, 0.0, 0.0, 0.0, 0.0, 0.0, 0.0, 0.0)",-0.546,-1.189,-10.234,"(0.0, 0.0, 0.0, 0.0, 0.0, 0.0, 0.0, 0.0, 0.0)",0,0,0,,0.2554,0.169,0.3385,"(0.0, 0.0, 0.0, 0.0, 0.0, 0.0, 0.0, 0.0, 0.0)","b'$VNYMR,+003.237,-003.243,+006.715,+00.2554,+00.1690,+00.3385,-00.546,-01.189,-10.234,+00.014017,+00.024976,-00.013964*6D\r\n'"
1678087503.0641851,0,1678087503,24685859,imu1_frame,0,0,0,,0.05942547144643793,-0.02649815010506281,0.02975211485023674,0.9974373529431892,"(0.0, 0.0, 0.0, 0.0, 0.0, 0.0, 0.0, 0.0, 0.0)",0.006189,0.00096,-0.005865,"(0.0, 0.0, 0.0, 0.0, 0.0, 0.0, 0.0, 0.0, 0.0)",-0.52,-1.093,-10.151,"(0.0, 0.0, 0.0, 0.0, 0.0, 0.0, 0.0, 0.0, 0.0)",0,0,0,,0.2553,0.1627,0.3405,"(0.0, 0.0, 0.0, 0.0, 0.0, 0.0, 0.0, 0.0, 0.0)","b'$VNYMR,+003.227,-003.233,+006.728,+00.2553,+00.1627,+00.3405,-00.520,-01.093,-10.151,+00.006189,+00.000960,-00.005865*68\r\n'"
1678087503.0642102,0,1678087503,49811124,imu1_frame,0,0,0,,0.05946968566521487,-0.026449174798943147,0.02982037946593319,0.9974339790722206,"(0.0, 0.0, 0.0, 0.0, 0.0, 0.0, 0.0, 0.0, 0.0)",0.008544,0.004239,0.004502,"(0.0, 0.0, 0.0, 0.0, 0.0, 0.0, 0.0, 0.0, 0.0)",-0.55,-1.146,-10.149,"(0.0, 0.0, 0.0, 0.0, 0.0, 0.0, 0.0, 0.0, 0.0)",0,0,0,,0.2536,0.1628,0.3414,"(0.0, 0.0, 0.0, 0.0, 0.0, 0.0, 0.0, 0.0, 0.0)","b'$VNYMR,+003.235,-003.228,+006.733,+00.2536,+00.1628,+00.3414,-00.550,-01.146,-10.149,+00.008544,+00.004239,+00.004502*63\r\n'"
1678087503.108191,0,1678087503,74718952,imu1_frame,0,0,0,,0.05953747063277541,-0.02639590177361753,0.02980178302750364,0.9974319022813488,"(0.0, 0.0, 0.0, 0.0, 0.0, 0.0, 0.0, 0.0, 0.0)",0.00183,0.014275,-0.007962,"(0.0, 0.0, 0.0, 0.0, 0.0, 0.0, 0.0, 0.0, 0.0)",-0.533,-1.123,-10.276,"(0.0, 0.0, 0.0, 0.0, 0.0, 0.0, 0.0, 0.0, 0.0)",0,0,0,,0.251,0.1691,0.3383,"(0.0, 0.0, 0.0, 0.0, 0.0, 0.0, 0.0, 0.0, 0.0)","b'$VNYMR,+003.233,-003.222,+006.741,+00.2510,+00.1691,+00.3383,-00.533,-01.123,-10.276,+00.001830,+00.014275,-00.007962*6D\r\n'"
1678087503.1082222,0,1678087503,99606513,imu1_frame,0,0,0,,0.05954338849811051,-0.026245057606848046,0.029836935412226907,0.9974344786112936,"(0.0, 0.0, 0.0, 0.0, 0.0, 0.0, 0.0, 0.0, 0.0)",-0.001986,0.001059,0.001525,"(0.0, 0.0, 0.0, 0.0, 0.0, 0.0, 0.0, 0.0, 0.0)",-0.549,-1.182,-10.194,"(0.0, 0.0, 0.0, 0.0, 0.0, 0.0, 0.0, 0.0, 0.0)",0,0,0,,0.2519,0.1646,0.3413,"(0.0, 0.0, 0.0, 0.0, 0.0, 0.0, 0.0, 0.0, 0.0)","b'$VNYMR,+003.238,-003.205,+006.742,+00.2519,+00.1646,+00.3413,-00.549,-01.182,-10.194,-00.001986,+00.001059,+00.001525*69\r\n'"
1678087503.1520813,0,1678087503,124640703,imu1_frame,0,0,0,,0.05954471832919248,-0.026140468380984147,0.029979343421947722,0.9974328756362049,"(0.0, 0.0, 0.0, 0.0, 0.0, 0.0, 0.0, 0.0, 0.0)",0.003781,0.011656,0.014943,"(0.0, 0.0, 0.0, 0.0, 0.0, 0.0, 0.0, 0.0, 0.0)",-0.558,-1.229,-10.203,"(0.0, 0.0, 0.0, 0.0, 0.0, 0.0, 0.0, 0.0, 0.0)",0,0,0,,0.2536,0.1627,0.3395,"(0.0, 0.0, 0.0, 0.0, 0.0, 0.0, 0.0, 0.0, 0.0)","b'$VNYMR,+003.255,-003.194,+006.742,+00.2536,+00.1627,+00.3395,-00.558,-01.229,-10.203,+00.003781,+00.011656,+00.014943*68\r\n'"
1678087503.1530044,0,1678087503,149691820,imu1_frame,0,0,0,,0.05956483905538153,-0.026096808367298097,0.030117043297066506,0.9974286692512851,"(0.0, 0.0, 0.0, 0.0, 0.0, 0.0, 0.0, 0.0, 0.0)",-0.004068,-0.000798,0.00383,"(0.0, 0.0, 0.0, 0.0, 0.0, 0.0, 0.0, 0.0, 0.0)",-0.539,-1.29,-10.191,"(0.0, 0.0, 0.0, 0.0, 0.0, 0.0, 0.0, 0.0, 0.0)",0,0,0,,0.2536,0.1655,0.3423,"(0.0, 0.0, 0.0, 0.0, 0.0, 0.0, 0.0, 0.0, 0.0)","b'$VNYMR,+003.271,-003.190,+006.744,+00.2536,+00.1655,+00.3423,-00.539,-01.290,-10.191,-00.004068,-00.000798,+00.003830*69\r\n'"
1678087503.196102,0,1678087503,174697637,imu1_frame,0,0,0,,0.0594946700401412,-0.02599848249157373,0.030188000628451315,0.9974332798553529,"(0.0, 0.0, 0.0, 0.0, 0.0, 0.0, 0.0, 0.0, 0.0)",-0.010696,0.010488,0.002711,"(0.0, 0.0, 0.0, 0.0, 0.0, 0.0, 0.0, 0.0, 0.0)",-0.547,-1.345,-10.192,"(0.0, 0.0, 0.0, 0.0, 0.0, 0.0, 0.0, 0.0, 0.0)",0,0,0,,0.2536,0.1637,0.3414,"(0.0, 0.0, 0.0, 0.0, 0.0, 0.0, 0.0, 0.0, 0.0)","b'$VNYMR,+003.280,-003.179,+006.736,+00.2536,+00.1637,+00.3414,-00.547,-01.345,-10.192,-00.010696,+00.010488,+00.002711*6C\r\n'"
1678087503.2441385,0,1678087503,199554443,imu1_frame,0,0,0,,0.059491641336161555,-0.025912989275153207,0.030156834120044947,0.9974366280390005,"(0.0, 0.0, 0.0, 0.0, 0.0, 0.0, 0.0, 0.0, 0.0)",-8.5e-05,-0.001665,0.00962,"(0.0, 0.0, 0.0, 0.0, 0.0, 0.0, 0.0, 0.0, 0.0)",-0.507,-1.201,-10.167,"(0.0, 0.0, 0.0, 0.0, 0.0, 0.0, 0.0, 0.0, 0.0)",0,0,0,,0.2528,0.1682,0.3393,"(0.0, 0.0, 0.0, 0.0, 0.0, 0.0, 0.0, 0.0, 0.0)","b'$VNYMR,+003.277,-003.169,+006.736,+00.2528,+00.1682,+00.3393,-00.507,-01.201,-10.167,-00.000085,-00.001665,+00.009620*69\r\n'"
1678087503.244225,0,1678087503,224602222,imu1_frame,0,0,0,,0.05956144597070467,-0.025855015166834174,0.03021653682407587,0.9974321597216327,"(0.0, 0.0, 0.0, 0.0, 0.0, 0.0, 0.0, 0.0, 0.0)",0.006645,0.009866,-0.000456,"(0.0, 0.0, 0.0, 0.0, 0.0, 0.0, 0.0, 0.0, 0.0)",-0.582,-1.323,-10.133,"(0.0, 0.0, 0.0, 0.0, 0.0, 0.0, 0.0, 0.0, 0.0)",0,0,0,,0.2527,0.1628,0.3404,"(0.0, 0.0, 0.0, 0.0, 0.0, 0.0, 0.0, 0.0, 0.0)","b'$VNYMR,+003.284,-003.163,+006.744,+00.2527,+00.1628,+00.3404,-00.582,-01.323,-10.133,+00.006645,+00.009866,-00.000456*64\r\n'"
1678087503.28818,0,1678087503,249577045,imu1_frame,0,0,0,,0.05967089794577159,-0.02576766142086562,0.030162174621097156,0.9974295237185288,"(0.0, 0.0, 0.0, 0.0, 0.0, 0.0, 0.0, 0.0, 0.0)",0.011104,0.004339,-0.004409,"(0.0, 0.0, 0.0, 0.0, 0.0, 0.0, 0.0, 0.0, 0.0)",-0.535,-1.192,-10.141,"(0.0, 0.0, 0.0, 0.0, 0.0, 0.0, 0.0, 0.0, 0.0)",0,0,0,,0.2545,0.1627,0.3424,"(0.0, 0.0, 0.0, 0.0, 0.0, 0.0, 0.0, 0.0, 0.0)","b'$VNYMR,+003.278,-003.153,+006.757,+00.2545,+00.1627,+00.3424,-00.535,-01.192,-10.141,+00.011104,+00.004339,-00.004409*68\r\n'"
1678087503.2882164,0,1678087503,274675607,imu1_frame,0,0,0,,0.05976953250833341,-0.025730305856363024,0.030302390877759856,0.9974203323831755,"(0.0, 0.0, 0.0, 0.0, 0.0, 0.0, 0.0, 0.0, 0.0)",0.005108,-0.001956,0.005985,"(0.0, 0.0, 0.0, 0.0, 0.0, 0.0, 0.0, 0.0, 0.0)",-0.549,-1.331,-10.098,"(0.0, 0.0, 0.0, 0.0, 0.0, 0.0, 0.0, 0.0, 0.0)",0,0,0,,0.2519,0.1664,0.3403,"(0.0, 0.0, 0.0, 0.0, 0.0, 0.0, 0.0, 0.0, 0.0)","b'$VNYMR,+003.294,-003.150,+006.768,+00.2519,+00.1664,+00.3403,-00.549,-01.331,-10.098,+00.005108,-00.001956,+00.005985*6C\r\n'"
1678087503.332143,0,1678087503,299602031,imu1_frame,0,0,0,,0.059907629445784455,-0.02569177786251978,0.030295242963438215,0.9974132577513874,"(0.0, 0.0, 0.0, 0.0, 0.0, 0.0, 0.0, 0.0, 0.0)",0.014743,0.002447,-0.001999,"(0.0, 0.0, 0.0, 0.0, 0.0, 0.0, 0.0, 0.0, 0.0)",-0.567,-1.261,-10.024,"(0.0, 0.0, 0.0, 0.0, 0.0, 0.0, 0.0, 0.0, 0.0)",0,0,0,,0.2536,0.1618,0.3366,"(0.0, 0.0, 0.0, 0.0, 0.0, 0.0, 0.0, 0.0, 0.0)","b'$VNYMR,+003.293,-003.146,+006.784,+00.2536,+00.1618,+00.3366,-00.567,-01.261,-10.024,+00.014743,+00.002447,-00.001999*6D\r\n'"
1678087503.3321698,0,1678087503,324707031,imu1_frame,0,0,0,,0.06011788552301819,-0.025895085322661344,0.030155701875602382,0.9973995779228921,"(0.0, 0.0, 0.0, 0.0, 0.0, 0.0, 0.0, 0.0, 0.0)",0.012992,-0.01748,-0.012452,"(0.0, 0.0, 0.0, 0.0, 0.0, 0.0, 0.0, 0.0, 0.0)",-0.543,-1.183,-10.112,"(0.0, 0.0, 0.0, 0.0, 0.0, 0.0, 0.0, 0.0, 0.0)",0,0,0,,0.2527,0.1646,0.3404,"(0.0, 0.0, 0.0, 0.0, 0.0, 0.0, 0.0, 0.0, 0.0)","b'$VNYMR,+003.275,-003.169,+006.808,+00.2527,+00.1646,+00.3404,-00.543,-01.183,-10.112,+00.012992,-00.017480,-00.012452*63\r\n'"
1678087503.376225,0,1678087503,349663496,imu1_frame,0,0,0,,0.06028616336550701,-0.02612377170322037,0.030051460627644782,0.9973866034656824,"(0.0, 0.0, 0.0, 0.0, 0.0, 0.0, 0.0, 0.0, 0.0)",0.013631,-0.022391,-0.005414,"(0.0, 0.0, 0.0, 0.0, 0.0, 0.0, 0.0, 0.0, 0.0)",-0.547,-1.152,-10.211,"(0.0, 0.0, 0.0, 0.0, 0.0, 0.0, 0.0, 0.0, 0.0)",0,0,0,,0.2527,0.1628,0.3414,"(0.0, 0.0, 0.0, 0.0, 0.0, 0.0, 0.0, 0.0, 0.0)","b'$VNYMR,+003.261,-003.195,+006.827,+00.2527,+00.1628,+00.3414,-00.547,-01.152,-10.211,+00.013631,-00.022391,-00.005414*6B\r\n'"
1678087503.3786473,0,1678087503,374546289,imu1_frame,0,0,0,,0.0604422559259514,-0.026331652794562052,0.030155211246586627,0.9973685582543508,"(0.0, 0.0, 0.0, 0.0, 0.0, 0.0, 0.0, 0.0, 0.0)",0.012593,-0.011859,0.000919,"(0.0, 0.0, 0.0, 0.0, 0.0, 0.0, 0.0, 0.0, 0.0)",-0.598,-1.315,-10.306,"(0.0, 0.0, 0.0, 0.0, 0.0, 0.0, 0.0, 0.0, 0.0)",0,0,0,,0.2554,0.1636,0.3415,"(0.0, 0.0, 0.0, 0.0, 0.0, 0.0, 0.0, 0.0, 0.0)","b'$VNYMR,+003.271,-003.220,+006.844,+00.2554,+00.1636,+00.3415,-00.598,-01.315,-10.306,+00.012593,-00.011859,+00.000919*6A\r\n'"
1678087503.4242063,0,1678087503,399798870,imu1_frame,0,0,0,,0.060634237192303035,-0.026444840795734146,0.030071223666370658,0.9973564464034925,"(0.0, 0.0, 0.0, 0.0, 0.0, 0.0, 0.0, 0.0, 0.0)",0.018987,-0.014545,-0.007807,"(0.0, 0.0, 0.0, 0.0, 0.0, 0.0, 0.0, 0.0, 0.0)",-0.553,-1.237,-10.33,"(0.0, 0.0, 0.0, 0.0, 0.0, 0.0, 0.0, 0.0, 0.0)",0,0,0,,0.2536,0.1673,0.3394,"(0.0, 0.0, 0.0, 0.0, 0.0, 0.0, 0.0, 0.0, 0.0)","b'$VNYMR,+003.260,-003.233,+006.866,+00.2536,+00.1673,+00.3394,-00.553,-01.237,-10.330,+00.018987,-00.014545,-00.007807*69\r\n'"
1678087503.4721365,0,1678087503,424510002,imu1_frame,0,0,0,,0.06086738897182831,-0.026460475062850607,0.02999145356644449,0.9973442319140228,"(0.0, 0.0, 0.0, 0.0, 0.0, 0.0, 0.0, 0.0, 0.0)",0.017996,0.003612,-0.007831,"(0.0, 0.0, 0.0, 0.0, 0.0, 0.0, 0.0, 0.0, 0.0)",-0.567,-1.16,-10.156,"(0.0, 0.0, 0.0, 0.0, 0.0, 0.0, 0.0, 0.0, 0.0)",0,0,0,,0.2528,0.1664,0.3413,"(0.0, 0.0, 0.0, 0.0, 0.0, 0.0, 0.0, 0.0, 0.0)","b'$VNYMR,+003.250,-003.235,+006.893,+00.2528,+00.1664,+00.3413,-00.567,-01.160,-10.156,+00.017996,+00.003612,-00.007831*68\r\n'"
1678087503.4721587,0,1678087503,449681520,imu1_frame,0,0,0,,0.060912760569085324,-0.02650109314315143,0.030021306375701395,0.9973394852433987,"(0.0, 0.0, 0.0, 0.0, 0.0, 0.0, 0.0, 0.0, 0.0)",0.00126,0.001453,0.010375,"(0.0, 0.0, 0.0, 0.0, 0.0, 0.0, 0.0, 0.0, 0.0)",-0.56,-1.126,-10.209,"(0.0, 0.0, 0.0, 0.0, 0.0, 0.0, 0.0, 0.0, 0.0)",0,0,0,,0.2536,0.1645,0.3375,"(0.0, 0.0, 0.0, 0.0, 0.0, 0.0, 0.0, 0.0, 0.0)","b'$VNYMR,+003.253,-003.240,+006.898,+00.2536,+00.1645,+00.3375,-00.560,-01.126,-10.209,+00.001260,+00.001453,+00.010375*6E\r\n'"
1678087503.520163,0,1678087503,474529504,imu1_frame,0,0,0,,0.06096822828696729,-0.026547490303886243,0.030095429154105915,0.9973326280846042,"(0.0, 0.0, 0.0, 0.0, 0.0, 0.0, 0.0, 0.0, 0.0)",0.001931,-0.013992,0.004171,"(0.0, 0.0, 0.0, 0.0, 0.0, 0.0, 0.0, 0.0, 0.0)",-0.541,-1.141,-10.175,"(0.0, 0.0, 0.0, 0.0, 0.0, 0.0, 0.0, 0.0, 0.0)",0,0,0,,0.2536,0.1664,0.3394,"(0.0, 0.0, 0.0, 0.0, 0.0, 0.0, 0.0, 0.0, 0.0)","b'$VNYMR,+003.261,-003.246,+006.904,+00.2536,+00.1664,+00.3394,-00.541,-01.141,-10.175,+00.001931,-00.013992,+00.004171*62\r\n'"
1678087503.5202017,0,1678087503,499587059,imu1_frame,0,0,0,,0.06098064984187015,-0.02659413143862925,0.03018580267945499,0.997327894844261,"(0.0, 0.0, 0.0, 0.0, 0.0, 0.0, 0.0, 0.0, 0.0)",0.004271,-0.001253,0.008092,"(0.0, 0.0, 0.0, 0.0, 0.0, 0.0, 0.0, 0.0, 0.0)",-0.549,-1.205,-10.21,"(0.0, 0.0, 0.0, 0.0, 0.0, 0.0, 0.0, 0.0, 0.0)",0,0,0,,0.2519,0.1673,0.3393,"(0.0, 0.0, 0.0, 0.0, 0.0, 0.0, 0.0, 0.0, 0.0)","b'$VNYMR,+003.271,-003.252,+006.905,+00.2519,+00.1673,+00.3393,-00.549,-01.205,-10.210,+00.004271,-00.001253,+00.008092*6F\r\n'"
1678087503.5682669,0,1678087503,524599552,imu1_frame,0,0,0,,0.061002020644119324,-0.026667683360530443,0.030260556841101117,0.9973223585386941,"(0.0, 0.0, 0.0, 0.0, 0.0, 0.0, 0.0, 0.0, 0.0)",0.001248,-0.005373,0.012224,"(0.0, 0.0, 0.0, 0.0, 0.0, 0.0, 0.0, 0.0, 0.0)",-0.531,-1.213,-10.249,"(0.0, 0.0, 0.0, 0.0, 0.0, 0.0, 0.0, 0.0, 0.0)",0,0,0,,0.2545,0.1654,0.3385,"(0.0, 0.0, 0.0, 0.0, 0.0, 0.0, 0.0, 0.0, 0.0)","b'$VNYMR,+003.279,-003.261,+006.907,+00.2545,+00.1654,+00.3385,-00.531,-01.213,-10.249,+00.001248,-00.005373,+00.012224*66\r\n'"
1678087503.5685022,0,1678087503,549503564,imu1_frame,0,0,0,,0.0609617728484724,-0.02670773662118146,0.030340311616588875,0.9973213246224875,"(0.0, 0.0, 0.0, 0.0, 0.0, 0.0, 0.0, 0.0, 0.0)",-0.003774,-0.003941,0.006823,"(0.0, 0.0, 0.0, 0.0, 0.0, 0.0, 0.0, 0.0, 0.0)",-0.553,-1.302,-10.277,"(0.0, 0.0, 0.0, 0.0, 0.0, 0.0, 0.0, 0.0, 0.0)",0,0,0,,0.2527,0.1637,0.3414,"(0.0, 0.0, 0.0, 0.0, 0.0, 0.0, 0.0, 0.0, 0.0)","b'$VNYMR,+003.288,-003.266,+006.902,+00.2527,+00.1637,+00.3414,-00.553,-01.302,-10.277,-00.003774,-00.003941,+00.006823*67\r\n'"
1678087503.6121876,0,1678087503,575365543,imu1_frame,0,0,0,,0.0609972782805948,-0.0266773714118418,0.03039190921749791,0.9973183953738293,"(0.0, 0.0, 0.0, 0.0, 0.0, 0.0, 0.0, 0.0, 0.0)",0.0032,0.007762,0.003448,"(0.0, 0.0, 0.0, 0.0, 0.0, 0.0, 0.0, 0.0, 0.0)",-0.547,-1.227,-10.326,"(0.0, 0.0, 0.0, 0.0, 0.0, 0.0, 0.0, 0.0, 0.0)",0,0,0,,0.2554,0.1654,0.3395,"(0.0, 0.0, 0.0, 0.0, 0.0, 0.0, 0.0, 0.0, 0.0)","b'$VNYMR,+003.294,-003.263,+006.906,+00.2554,+00.1654,+00.3395,-00.547,-01.227,-10.326,+00.003200,+00.007762,+00.003448*6B\r\n'"
1678087503.6122139,0,1678087503,600357055,imu1_frame,0,0,0,,0.06095232923514735,-0.0265710563856606,0.03043675274603274,0.9973226141052037,"(0.0, 0.0, 0.0, 0.0, 0.0, 0.0, 0.0, 0.0, 0.0)",-0.007535,0.00817,-0.002981,"(0.0, 0.0, 0.0, 0.0, 0.0, 0.0, 0.0, 0.0, 0.0)",-0.564,-1.28,-10.251,"(0.0, 0.0, 0.0, 0.0, 0.0, 0.0, 0.0, 0.0, 0.0)",0,0,0,,0.2519,0.1628,0.3404,"(0.0, 0.0, 0.0, 0.0, 0.0, 0.0, 0.0, 0.0, 0.0)","b'$VNYMR,+003.300,-003.251,+006.901,+00.2519,+00.1628,+00.3404,-00.564,-01.280,-10.251,-00.007535,+00.008170,-00.002981*67\r\n'"
1678087503.65614,0,1678087503,625444889,imu1_frame,0,0,0,,0.06087936107305753,-0.026386674211458364,0.030484962148580663,0.9973304938194733,"(0.0, 0.0, 0.0, 0.0, 0.0, 0.0, 0.0, 0.0, 0.0)",-0.005856,0.017716,0.001785,"(0.0, 0.0, 0.0, 0.0, 0.0, 0.0, 0.0, 0.0, 0.0)",-0.585,-1.289,-10.227,"(0.0, 0.0, 0.0, 0.0, 0.0, 0.0, 0.0, 0.0, 0.0)",0,0,0,,0.2545,0.1654,0.3356,"(0.0, 0.0, 0.0, 0.0, 0.0, 0.0, 0.0, 0.0, 0.0)","b'$VNYMR,+003.307,-003.230,+006.893,+00.2545,+00.1654,+00.3356,-00.585,-01.289,-10.227,-00.005856,+00.017716,+00.001785*65\r\n'"
1678087503.6561658,0,1678087503,649530410,imu1_frame,0,0,0,,0.06085575167287329,-0.026105484074379244,0.030520178480771983,0.997338257510998,"(0.0, 0.0, 0.0, 0.0, 0.0, 0.0, 0.0, 0.0, 0.0)",5.2e-05,0.019016,0.000688,"(0.0, 0.0, 0.0, 0.0, 0.0, 0.0, 0.0, 0.0, 0.0)",-0.586,-1.276,-10.102,"(0.0, 0.0, 0.0, 0.0, 0.0, 0.0, 0.0, 0.0, 0.0)",0,0,0,,0.2536,0.1682,0.3365,"(0.0, 0.0, 0.0, 0.0, 0.0, 0.0, 0.0, 0.0, 0.0)","b'$VNYMR,+003.313,-003.198,+006.891,+00.2536,+00.1682,+00.3365,-00.586,-01.276,-10.102,+00.000052,+00.019016,+00.000688*60\r\n'"
1678087503.7042954,0,1678087503,674415588,imu1_frame,0,0,0,,0.06087737792530231,-0.025957775014384187,0.030494661579659972,0.9973415735786735,"(0.0, 0.0, 0.0, 0.0, 0.0, 0.0, 0.0, 0.0, 0.0)",0.006527,0.014811,0.008135,"(0.0, 0.0, 0.0, 0.0, 0.0, 0.0, 0.0, 0.0, 0.0)",-0.54,-1.122,-10.029,"(0.0, 0.0, 0.0, 0.0, 0.0, 0.0, 0.0, 0.0, 0.0)",0,0,0,,0.2527,0.1646,0.3404,"(0.0, 0.0, 0.0, 0.0, 0.0, 0.0, 0.0, 0.0, 0.0)","b'$VNYMR,+003.311,-003.181,+006.894,+00.2527,+00.1646,+00.3404,-00.540,-01.122,-10.029,+00.006527,+00.014811,+00.008135*6D\r\n'"
1678087503.7047424,0,1678087503,700234651,imu1_frame,0,0,0,,0.06086569324310067,-0.025991206034410262,0.030670862603131784,0.997336012977619,"(0.0, 0.0, 0.0, 0.0, 0.0, 0.0, 0.0, 0.0, 0.0)",-0.001655,-0.005668,0.011432,"(0.0, 0.0, 0.0, 0.0, 0.0, 0.0, 0.0, 0.0, 0.0)",-0.589,-1.283,-10.163,"(0.0, 0.0, 0.0, 0.0, 0.0, 0.0, 0.0, 0.0, 0.0)",0,0,0,,0.2527,0.1637,0.3404,"(0.0, 0.0, 0.0, 0.0, 0.0, 0.0, 0.0, 0.0, 0.0)","b'$VNYMR,+003.331,-003.186,+006.892,+00.2527,+00.1637,+00.3404,-00.589,-01.283,-10.163,-00.001655,-00.005668,+00.011432*61\r\n'"
1678087503.7482219,0,1678087503,725260019,imu1_frame,0,0,0,,0.06094482955236673,-0.025912781376890154,0.030773202022044782,0.9973300685076415,"(0.0, 0.0, 0.0, 0.0, 0.0, 0.0, 0.0, 0.0, 0.0)",0.005894,0.010937,0.007926,"(0.0, 0.0, 0.0, 0.0, 0.0, 0.0, 0.0, 0.0, 0.0)",-0.596,-1.345,-10.162,"(0.0, 0.0, 0.0, 0.0, 0.0, 0.0, 0.0, 0.0, 0.0)",0,0,0,,0.2545,0.1654,0.3404,"(0.0, 0.0, 0.0, 0.0, 0.0, 0.0, 0.0, 0.0, 0.0)","b'$VNYMR,+003.343,-003.178,+006.901,+00.2545,+00.1654,+00.3404,-00.596,-01.345,-10.162,+00.005894,+00.010937,+00.007926*62\r\n'"
1678087503.7964523,0,1678087503,750261545,imu1_frame,0,0,0,,0.061071046524855684,-0.025891167936812315,0.03063578420809213,0.9973271396212889,"(0.0, 0.0, 0.0, 0.0, 0.0, 0.0, 0.0, 0.0, 0.0)",0.011067,-0.009882,-0.028766,"(0.0, 0.0, 0.0, 0.0, 0.0, 0.0, 0.0, 0.0, 0.0)",-0.597,-1.366,-10.101,"(0.0, 0.0, 0.0, 0.0, 0.0, 0.0, 0.0, 0.0, 0.0)",0,0,0,,0.2519,0.1646,0.3403,"(0.0, 0.0, 0.0, 0.0, 0.0, 0.0, 0.0, 0.0, 0.0)","b'$VNYMR,+003.327,-003.175,+006.916,+00.2519,+00.1646,+00.3403,-00.597,-01.366,-10.101,+00.011067,-00.009882,-00.028766*62\r\n'"
1678087503.796511,0,1678087503,775219917,imu1_frame,0,0,0,,0.06119830905863572,-0.025987550417514254,0.03042679226555065,0.9973232297024319,"(0.0, 0.0, 0.0, 0.0, 0.0, 0.0, 0.0, 0.0, 0.0)",0.003043,-0.006462,-0.013009,"(0.0, 0.0, 0.0, 0.0, 0.0, 0.0, 0.0, 0.0, 0.0)",-0.578,-1.227,-10.174,"(0.0, 0.0, 0.0, 0.0, 0.0, 0.0, 0.0, 0.0, 0.0)",0,0,0,,0.2545,0.1636,0.3414,"(0.0, 0.0, 0.0, 0.0, 0.0, 0.0, 0.0, 0.0, 0.0)","b'$VNYMR,+003.302,-003.185,+006.931,+00.2545,+00.1636,+00.3414,-00.578,-01.227,-10.174,+00.003043,-00.006462,-00.013009*6E\r\n'"
1678087503.8402464,0,1678087503,800339460,imu1_frame,0,0,0,,0.06123041714294896,-0.026011377430305717,0.030306894279049066,0.9973242884938867,"(0.0, 0.0, 0.0, 0.0, 0.0, 0.0, 0.0, 0.0, 0.0)",0.003749,-0.004266,-0.005242,"(0.0, 0.0, 0.0, 0.0, 0.0, 0.0, 0.0, 0.0, 0.0)",-0.585,-1.162,-10.15,"(0.0, 0.0, 0.0, 0.0, 0.0, 0.0, 0.0, 0.0, 0.0)",0,0,0,,0.2527,0.1636,0.3345,"(0.0, 0.0, 0.0, 0.0, 0.0, 0.0, 0.0, 0.0, 0.0)","b'$VNYMR,+003.288,-003.187,+006.935,+00.2527,+00.1636,+00.3345,-00.585,-01.162,-10.150,+00.003749,-00.004266,-00.005242*6D\r\n'"
1678087503.8402746,0,1678087503,825248956,imu1_frame,0,0,0,,0.06131818550426172,-0.026071801582521592,0.030277999453407176,0.9973181959825089,"(0.0, 0.0, 0.0, 0.0, 0.0, 0.0, 0.0, 0.0, 0.0)",0.011007,-0.001753,0.000546,"(0.0, 0.0, 0.0, 0.0, 0.0, 0.0, 0.0, 0.0, 0.0)",-0.577,-1.137,-10.199,"(0.0, 0.0, 0.0, 0.0, 0.0, 0.0, 0.0, 0.0, 0.0)",0,0,0,,0.2527,0.1655,0.3394,"(0.0, 0.0, 0.0, 0.0, 0.0, 0.0, 0.0, 0.0, 0.0)","b'$VNYMR,+003.284,-003.194,+006.945,+00.2527,+00.1655,+00.3394,-00.577,-01.137,-10.199,+00.011007,-00.001753,+00.000546*6D\r\n'"
1678087503.8881114,0,1678087503,850455284,imu1_frame,0,0,0,,0.061463655496403355,-0.02613625540580212,0.030442997312216898,0.9973025313920699,"(0.0, 0.0, 0.0, 0.0, 0.0, 0.0, 0.0, 0.0, 0.0)",0.013498,-0.008457,0.016871,"(0.0, 0.0, 0.0, 0.0, 0.0, 0.0, 0.0, 0.0, 0.0)",-0.558,-1.242,-10.184,"(0.0, 0.0, 0.0, 0.0, 0.0, 0.0, 0.0, 0.0, 0.0)",0,0,0,,0.2519,0.1628,0.3413,"(0.0, 0.0, 0.0, 0.0, 0.0, 0.0, 0.0, 0.0, 0.0)","b'$VNYMR,+003.302,-003.203,+006.961,+00.2519,+00.1628,+00.3413,-00.558,-01.242,-10.184,+00.013498,-00.008457,+00.016871*66\r\n'"
1678087503.8881457,0,1678087503,875259399,imu1_frame,0,0,0,,0.06162837047619509,-0.02618658394857863,0.03068627228389606,0.9972835902925863,"(0.0, 0.0, 0.0, 0.0, 0.0, 0.0, 0.0, 0.0, 0.0)",0.012876,-0.004135,0.019125,"(0.0, 0.0, 0.0, 0.0, 0.0, 0.0, 0.0, 0.0, 0.0)",-0.571,-1.373,-10.131,"(0.0, 0.0, 0.0, 0.0, 0.0, 0.0, 0.0, 0.0, 0.0)",0,0,0,,0.2536,0.1637,0.3404,"(0.0, 0.0, 0.0, 0.0, 0.0, 0.0, 0.0, 0.0, 0.0)","b'$VNYMR,+003.329,-003.211,+006.979,+00.2536,+00.1637,+00.3404,-00.571,-01.373,-10.131,+00.012876,-00.004135,+00.019125*61\r\n'"
1678087503.9321587,0,1678087503,900287628,imu1_frame,0,0,0,,0.06177202067075159,-0.02622751379554308,0.030806214242322258,0.9972699294305494,"(0.0, 0.0, 0.0, 0.0, 0.0, 0.0, 0.0, 0.0, 0.0)",0.007178,-0.000686,0.007471,"(0.0, 0.0, 0.0, 0.0, 0.0, 0.0, 0.0, 0.0, 0.0)",-0.554,-1.305,-10.097,"(0.0, 0.0, 0.0, 0.0, 0.0, 0.0, 0.0, 0.0, 0.0)",0,0,0,,0.2527,0.1654,0.3355,"(0.0, 0.0, 0.0, 0.0, 0.0, 0.0, 0.0, 0.0, 0.0)","b'$VNYMR,+003.342,-003.217,+006.995,+00.2527,+00.1654,+00.3355,-00.554,-01.305,-10.097,+00.007178,-00.000686,+00.007471*66\r\n'"
1678087503.932186,0,1678087503,925231695,imu1_frame,0,0,0,,0.061808829688726204,-0.02638849820570654,0.030729553543479806,0.9972657671222729,"(0.0, 0.0, 0.0, 0.0, 0.0, 0.0, 0.0, 0.0, 0.0)",-0.007483,-0.024202,-0.008225,"(0.0, 0.0, 0.0, 0.0, 0.0, 0.0, 0.0, 0.0, 0.0)",-0.539,-1.239,-10.088,"(0.0, 0.0, 0.0, 0.0, 0.0, 0.0, 0.0, 0.0, 0.0)",0,0,0,,0.2553,0.1645,0.3327,"(0.0, 0.0, 0.0, 0.0, 0.0, 0.0, 0.0, 0.0, 0.0)","b'$VNYMR,+003.332,-003.235,+006.999,+00.2553,+00.1645,+00.3327,-00.539,-01.239,-10.088,-00.007483,-00.024202,-00.008225*67\r\n'"
1678087503.9762256,0,1678087503,950251340,imu1_frame,0,0,0,,0.061683083621600826,-0.026622046483845946,0.030687504075252756,0.9972686403018867,"(0.0, 0.0, 0.0, 0.0, 0.0, 0.0, 0.0, 0.0, 0.0)",-0.004794,-0.009033,0.004439,"(0.0, 0.0, 0.0, 0.0, 0.0, 0.0, 0.0, 0.0, 0.0)",-0.563,-1.227,-10.259,"(0.0, 0.0, 0.0, 0.0, 0.0, 0.0, 0.0, 0.0, 0.0)",0,0,0,,0.2545,0.1663,0.3385,"(0.0, 0.0, 0.0, 0.0, 0.0, 0.0, 0.0, 0.0, 0.0)","b'$VNYMR,+003.326,-003.261,+006.984,+00.2545,+00.1663,+00.3385,-00.563,-01.227,-10.259,-00.004794,-00.009033,+00.004439*62\r\n'"
1678087503.9794524,0,1678087503,975352287,imu1_frame,0,0,0,,0.06168663815828166,-0.026734117631605034,0.030711720149729383,0.997264676940196,"(0.0, 0.0, 0.0, 0.0, 0.0, 0.0, 0.0, 0.0, 0.0)",0.004929,-0.002755,-0.002099,"(0.0, 0.0, 0.0, 0.0, 0.0, 0.0, 0.0, 0.0, 0.0)",-0.558,-1.231,-10.341,"(0.0, 0.0, 0.0, 0.0, 0.0, 0.0, 0.0, 0.0, 0.0)",0,0,0,,0.2536,0.1645,0.3385,"(0.0, 0.0, 0.0, 0.0, 0.0, 0.0, 0.0, 0.0, 0.0)","b'$VNYMR,+003.328,-003.274,+006.984,+00.2536,+00.1645,+00.3385,-00.558,-01.231,-10.341,+00.004929,-00.002755,-00.002099*63\r\n'"
1678087504.020413,0,1678087504,309705,imu1_frame,0,0,0,,0.06178276913095073,-0.026619177966972024,0.030829828008998566,0.9972581564007436,"(0.0, 0.0, 0.0, 0.0, 0.0, 0.0, 0.0, 0.0, 0.0)",0.012337,0.014555,0.010572,"(0.0, 0.0, 0.0, 0.0, 0.0, 0.0, 0.0, 0.0, 0.0)",-0.523,-1.239,-10.221,"(0.0, 0.0, 0.0, 0.0, 0.0, 0.0, 0.0, 0.0, 0.0)",0,0,0,,0.2545,0.1673,0.3404,"(0.0, 0.0, 0.0, 0.0, 0.0, 0.0, 0.0, 0.0, 0.0)","b'$VNYMR,+003.342,-003.262,+006.995,+00.2545,+00.1673,+00.3404,-00.523,-01.239,-10.221,+00.012337,+00.014555,+00.010572*60\r\n'"
1678087504.0642076,0,1678087504,25214195,imu1_frame,0,0,0,,0.06194830250136722,-0.026548816419493415,0.030900179260429782,0.9972475856504225,"(0.0, 0.0, 0.0, 0.0, 0.0, 0.0, 0.0, 0.0, 0.0)",0.015059,-0.00115,0.001515,"(0.0, 0.0, 0.0, 0.0, 0.0, 0.0, 0.0, 0.0, 0.0)",-0.556,-1.205,-10.082,"(0.0, 0.0, 0.0, 0.0, 0.0, 0.0, 0.0, 0.0, 0.0)",0,0,0,,0.2545,0.1636,0.3385,"(0.0, 0.0, 0.0, 0.0, 0.0, 0.0, 0.0, 0.0, 0.0)","b'$VNYMR,+003.350,-003.255,+007.014,+00.2545,+00.1636,+00.3385,-00.556,-01.205,-10.082,+00.015059,-00.001150,+00.001515*61\r\n'"
1678087504.0642376,0,1678087504,50234079,imu1_frame,0,0,0,,0.06207363044811799,-0.026555406086927504,0.0310176100107137,0.9972359714128708,"(0.0, 0.0, 0.0, 0.0, 0.0, 0.0, 0.0, 0.0, 0.0)",0.009283,0.007089,0.006618,"(0.0, 0.0, 0.0, 0.0, 0.0, 0.0, 0.0, 0.0, 0.0)",-0.549,-1.237,-10.16,"(0.0, 0.0, 0.0, 0.0, 0.0, 0.0, 0.0, 0.0, 0.0)",0,0,0,,0.2545,0.1663,0.3395,"(0.0, 0.0, 0.0, 0.0, 0.0, 0.0, 0.0, 0.0, 0.0)","b'$VNYMR,+003.363,-003.257,+007.028,+00.2545,+00.1663,+00.3395,-00.549,-01.237,-10.160,+00.009283,+00.007089,+00.006618*6B\r\n'"
1678087504.108175,0,1678087504,75381755,imu1_frame,0,0,0,,0.062039275003061924,-0.026546161177220782,0.031042263798022465,0.9972375883119035,"(0.0, 0.0, 0.0, 0.0, 0.0, 0.0, 0.0, 0.0, 0.0)",-0.004578,0.001624,0.000999,"(0.0, 0.0, 0.0, 0.0, 0.0, 0.0, 0.0, 0.0, 0.0)",-0.536,-1.22,-10.243,"(0.0, 0.0, 0.0, 0.0, 0.0, 0.0, 0.0, 0.0, 0.0)",0,0,0,,0.2536,0.1627,0.3385,"(0.0, 0.0, 0.0, 0.0, 0.0, 0.0, 0.0, 0.0, 0.0)","b'$VNYMR,+003.366,-003.256,+007.024,+00.2536,+00.1627,+00.3385,-00.536,-01.220,-10.243,-00.004578,+00.001624,+00.000999*65\r\n'"
1678087504.108203,0,1678087504,100187540,imu1_frame,0,0,0,,0.06202974079111792,-0.02641862945828221,0.03113038513883345,0.9972388211436819,"(0.0, 0.0, 0.0, 0.0, 0.0, 0.0, 0.0, 0.0, 0.0)",0.002301,0.004809,0.004942,"(0.0, 0.0, 0.0, 0.0, 0.0, 0.0, 0.0, 0.0, 0.0)",-0.538,-1.245,-10.197,"(0.0, 0.0, 0.0, 0.0, 0.0, 0.0, 0.0, 0.0, 0.0)",0,0,0,,0.2528,0.1655,0.3423,"(0.0, 0.0, 0.0, 0.0, 0.0, 0.0, 0.0, 0.0, 0.0)","b'$VNYMR,+003.377,-003.242,+007.023,+00.2528,+00.1655,+00.3423,-00.538,-01.245,-10.197,+00.002301,+00.004809,+00.004942*6F\r\n'"
1678087504.1525006,0,1678087504,125183582,imu1_frame,0,0,0,,0.0621006605354009,-0.026348487274247698,0.03124167025293009,0.9972327828642784,"(0.0, 0.0, 0.0, 0.0, 0.0, 0.0, 0.0, 0.0, 0.0)",0.00666,0.006165,0.01105,"(0.0, 0.0, 0.0, 0.0, 0.0, 0.0, 0.0, 0.0, 0.0)",-0.543,-1.262,-10.206,"(0.0, 0.0, 0.0, 0.0, 0.0, 0.0, 0.0, 0.0, 0.0)",0,0,0,,0.2536,0.1636,0.3395,"(0.0, 0.0, 0.0, 0.0, 0.0, 0.0, 0.0, 0.0, 0.0)","b'$VNYMR,+003.390,-003.235,+007.031,+00.2536,+00.1636,+00.3395,-00.543,-01.262,-10.206,+00.006660,+00.006165,+00.011050*6E\r\n'"
1678087504.1541536,0,1678087504,150184869,imu1_frame,0,0,0,,0.062128024038576354,-0.026261206567464272,0.031368148718416464,0.997229410368879,"(0.0, 0.0, 0.0, 0.0, 0.0, 0.0, 0.0, 0.0, 0.0)",-0.002833,0.007584,0.009971,"(0.0, 0.0, 0.0, 0.0, 0.0, 0.0, 0.0, 0.0, 0.0)",-0.584,-1.3,-10.16,"(0.0, 0.0, 0.0, 0.0, 0.0, 0.0, 0.0, 0.0, 0.0)",0,0,0,,0.2545,0.1636,0.3385,"(0.0, 0.0, 0.0, 0.0, 0.0, 0.0, 0.0, 0.0, 0.0)","b'$VNYMR,+003.405,-003.226,+007.034,+00.2545,+00.1636,+00.3385,-00.584,-01.300,-10.160,-00.002833,+00.007584,+00.009971*69\r\n'"
1678087504.2001479,0,1678087504,175087213,imu1_frame,0,0,0,,0.062064898531540375,-0.02617554701330626,0.031369976165888526,0.997235535720712,"(0.0, 0.0, 0.0, 0.0, 0.0, 0.0, 0.0, 0.0, 0.0)",-0.005608,0.015221,-0.008826,"(0.0, 0.0, 0.0, 0.0, 0.0, 0.0, 0.0, 0.0, 0.0)",-0.546,-1.314,-10.256,"(0.0, 0.0, 0.0, 0.0, 0.0, 0.0, 0.0, 0.0, 0.0)",0,0,0,,0.2528,0.1673,0.3384,"(0.0, 0.0, 0.0, 0.0, 0.0, 0.0, 0.0, 0.0, 0.0)","b'$VNYMR,+003.406,-003.216,+007.027,+00.2528,+00.1673,+00.3384,-00.546,-01.314,-10.256,-00.005608,+00.015221,-00.008826*63\r\n'"
1678087504.2443259,0,1678087504,200142145,imu1_frame,0,0,0,,0.06204393290319878,-0.02610101228008413,0.03131256141226786,0.9972405983741642,"(0.0, 0.0, 0.0, 0.0, 0.0, 0.0, 0.0, 0.0, 0.0)",-0.01241,-0.009254,-0.004617,"(0.0, 0.0, 0.0, 0.0, 0.0, 0.0, 0.0, 0.0, 0.0)",-0.514,-1.272,-10.149,"(0.0, 0.0, 0.0, 0.0, 0.0, 0.0, 0.0, 0.0, 0.0)",0,0,0,,0.2527,0.1628,0.3414,"(0.0, 0.0, 0.0, 0.0, 0.0, 0.0, 0.0, 0.0, 0.0)","b'$VNYMR,+003.400,-003.207,+007.025,+00.2527,+00.1628,+00.3414,-00.514,-01.272,-10.149,-00.012410,-00.009254,-00.004617*67\r\n'"
1678087504.244461,0,1678087504,225122928,imu1_frame,0,0,0,,0.06196280070521929,-0.026063739123450235,0.03124696146857164,0.9972486752213068,"(0.0, 0.0, 0.0, 0.0, 0.0, 0.0, 0.0, 0.0, 0.0)",-0.004299,0.005396,-0.005203,"(0.0, 0.0, 0.0, 0.0, 0.0, 0.0, 0.0, 0.0, 0.0)",-0.543,-1.222,-10.112,"(0.0, 0.0, 0.0, 0.0, 0.0, 0.0, 0.0, 0.0, 0.0)",0,0,0,,0.2536,0.1682,0.3404,"(0.0, 0.0, 0.0, 0.0, 0.0, 0.0, 0.0, 0.0, 0.0)","b'$VNYMR,+003.393,-003.202,+007.016,+00.2536,+00.1682,+00.3404,-00.543,-01.222,-10.112,-00.004299,+00.005396,-00.005203*62\r\n'"
1678087504.2882183,0,1678087504,250109434,imu1_frame,0,0,0,,0.06191972672692952,-0.0260547779151094,0.031271406230189154,0.9972508185718592,"(0.0, 0.0, 0.0, 0.0, 0.0, 0.0, 0.0, 0.0, 0.0)",-0.002043,0.001991,0.00517,"(0.0, 0.0, 0.0, 0.0, 0.0, 0.0, 0.0, 0.0, 0.0)",-0.561,-1.266,-10.134,"(0.0, 0.0, 0.0, 0.0, 0.0, 0.0, 0.0, 0.0, 0.0)",0,0,0,,0.2536,0.1627,0.3404,"(0.0, 0.0, 0.0, 0.0, 0.0, 0.0, 0.0, 0.0, 0.0)","b'$VNYMR,+003.396,-003.201,+007.011,+00.2536,+00.1627,+00.3404,-00.561,-01.266,-10.134,-00.002043,+00.001991,+00.005170*63\r\n'"
1678087504.2882714,0,1678087504,275085210,imu1_frame,0,0,0,,0.06181385180398098,-0.026015073943264373,0.03125734974212282,0.9972588639565861,"(0.0, 0.0, 0.0, 0.0, 0.0, 0.0, 0.0, 0.0, 0.0)",-0.010332,-0.005174,-0.001034,"(0.0, 0.0, 0.0, 0.0, 0.0, 0.0, 0.0, 0.0, 0.0)",-0.53,-1.243,-10.132,"(0.0, 0.0, 0.0, 0.0, 0.0, 0.0, 0.0, 0.0, 0.0)",0,0,0,,0.2527,0.1637,0.3384,"(0.0, 0.0, 0.0, 0.0, 0.0, 0.0, 0.0, 0.0, 0.0)","b'$VNYMR,+003.395,-003.196,+006.999,+00.2527,+00.1637,+00.3384,-00.530,-01.243,-10.132,-00.010332,-00.005174,-00.001034*6A\r\n'"
1678087504.3321729,0,1678087504,300182819,imu1_frame,0,0,0,,0.06166122758780931,-0.026103253672384943,0.03131941894788974,0.9972640608970355,"(0.0, 0.0, 0.0, 0.0, 0.0, 0.0, 0.0, 0.0, 0.0)",-0.014368,-0.003788,-0.002915,"(0.0, 0.0, 0.0, 0.0, 0.0, 0.0, 0.0, 0.0, 0.0)",-0.551,-1.383,-10.206,"(0.0, 0.0, 0.0, 0.0, 0.0, 0.0, 0.0, 0.0, 0.0)",0,0,0,,0.2536,0.1646,0.3394,"(0.0, 0.0, 0.0, 0.0, 0.0, 0.0, 0.0, 0.0, 0.0)","b'$VNYMR,+003.402,-003.206,+006.981,+00.2536,+00.1646,+00.3394,-00.551,-01.383,-10.206,-00.014368,-00.003788,-00.002915*68\r\n'"
1678087504.3322003,0,1678087504,325231552,imu1_frame,0,0,0,,0.061582552384422125,-0.026171475986631887,0.03124270400220447,0.9972695405621951,"(0.0, 0.0, 0.0, 0.0, 0.0, 0.0, 0.0, 0.0, 0.0)",-0.007749,-0.011666,-0.007208,"(0.0, 0.0, 0.0, 0.0, 0.0, 0.0, 0.0, 0.0, 0.0)",-0.561,-1.322,-10.169,"(0.0, 0.0, 0.0, 0.0, 0.0, 0.0, 0.0, 0.0, 0.0)",0,0,0,,0.2536,0.1636,0.3385,"(0.0, 0.0, 0.0, 0.0, 0.0, 0.0, 0.0, 0.0, 0.0)","b'$VNYMR,+003.393,-003.213,+006.972,+00.2536,+00.1636,+00.3385,-00.561,-01.322,-10.169,-00.007749,-00.011666,-00.007208*6F\r\n'"
1678087504.3765068,0,1678087504,350073099,imu1_frame,0,0,0,,0.06155682310250907,-0.0262734065783103,0.031160740428884205,0.9972710132618018,"(0.0, 0.0, 0.0, 0.0, 0.0, 0.0, 0.0, 0.0, 0.0)",-0.006366,-0.005517,-0.015843,"(0.0, 0.0, 0.0, 0.0, 0.0, 0.0, 0.0, 0.0, 0.0)",-0.591,-1.407,-10.236,"(0.0, 0.0, 0.0, 0.0, 0.0, 0.0, 0.0, 0.0, 0.0)",0,0,0,,0.2545,0.1627,0.3366,"(0.0, 0.0, 0.0, 0.0, 0.0, 0.0, 0.0, 0.0, 0.0)","b'$VNYMR,+003.383,-003.224,+006.969,+00.2545,+00.1627,+00.3366,-00.591,-01.407,-10.236,-00.006366,-00.005517,-00.015843*61\r\n'"
1678087504.380023,0,1678087504,375039815,imu1_frame,0,0,0,,0.061513635465129994,-0.026192173938202914,0.030936503970781817,0.9972827961006446,"(0.0, 0.0, 0.0, 0.0, 0.0, 0.0, 0.0, 0.0, 0.0)",-0.007104,0.005926,-0.012913,"(0.0, 0.0, 0.0, 0.0, 0.0, 0.0, 0.0, 0.0, 0.0)",-0.561,-1.228,-10.107,"(0.0, 0.0, 0.0, 0.0, 0.0, 0.0, 0.0, 0.0, 0.0)",0,0,0,,0.2553,0.1645,0.3385,"(0.0, 0.0, 0.0, 0.0, 0.0, 0.0, 0.0, 0.0, 0.0)","b'$VNYMR,+003.358,-003.213,+006.965,+00.2553,+00.1645,+00.3385,-00.561,-01.228,-10.107,-00.007104,+00.005926,-00.012913*68\r\n'"
1678087504.4201717,0,1678087504,400162458,imu1_frame,0,0,0,,0.061376835606918805,-0.026136769266004105,0.030763546364657945,0.9972980284540256,"(0.0, 0.0, 0.0, 0.0, 0.0, 0.0, 0.0, 0.0, 0.0)",-0.007792,0.00744,-0.012794,"(0.0, 0.0, 0.0, 0.0, 0.0, 0.0, 0.0, 0.0, 0.0)",-0.531,-1.2,-10.129,"(0.0, 0.0, 0.0, 0.0, 0.0, 0.0, 0.0, 0.0, 0.0)",0,0,0,,0.2528,0.1709,0.3383,"(0.0, 0.0, 0.0, 0.0, 0.0, 0.0, 0.0, 0.0, 0.0)","b'$VNYMR,+003.339,-003.205,+006.950,+00.2528,+00.1709,+00.3383,-00.531,-01.200,-10.129,-00.007792,+00.007440,-00.012794*69\r\n'"
1678087504.4642158,0,1678087504,425114631,imu1_frame,0,0,0,,0.06133054206394018,-0.02610757747425192,0.030690696852662597,0.9973038855510726,"(0.0, 0.0, 0.0, 0.0, 0.0, 0.0, 0.0, 0.0, 0.0)",0.000641,-0.003052,-0.002305,"(0.0, 0.0, 0.0, 0.0, 0.0, 0.0, 0.0, 0.0, 0.0)",-0.579,-1.247,-10.001,"(0.0, 0.0, 0.0, 0.0, 0.0, 0.0, 0.0, 0.0, 0.0)",0,0,0,,0.2554,0.1691,0.3404,"(0.0, 0.0, 0.0, 0.0, 0.0, 0.0, 0.0, 0.0, 0.0)","b'$VNYMR,+003.331,-003.201,+006.945,+00.2554,+00.1691,+00.3404,-00.579,-01.247,-10.001,+00.000641,-00.003052,-00.002305*60\r\n'"
1678087504.464246,0,1678087504,450066328,imu1_frame,0,0,0,,0.06139608637260824,-0.02638195348741945,0.0306040237250611,0.9972952957074203,"(0.0, 0.0, 0.0, 0.0, 0.0, 0.0, 0.0, 0.0, 0.0)",0.001316,-0.022125,0.004139,"(0.0, 0.0, 0.0, 0.0, 0.0, 0.0, 0.0, 0.0, 0.0)",-0.559,-1.187,-10.252,"(0.0, 0.0, 0.0, 0.0, 0.0, 0.0, 0.0, 0.0, 0.0)",0,0,0,,0.2528,0.1664,0.3403,"(0.0, 0.0, 0.0, 0.0, 0.0, 0.0, 0.0, 0.0, 0.0)","b'$VNYMR,+003.319,-003.232,+006.952,+00.2528,+00.1664,+00.3403,-00.559,-01.187,-10.252,+00.001316,-00.022125,+00.004139*6A\r\n'"
1678087504.5081081,0,1678087504,475044965,imu1_frame,0,0,0,,0.06142597885554967,-0.026501934501699475,0.030629425104256033,0.9972894940322434,"(0.0, 0.0, 0.0, 0.0, 0.0, 0.0, 0.0, 0.0, 0.0)",0.003517,-0.00118,-0.006508,"(0.0, 0.0, 0.0, 0.0, 0.0, 0.0, 0.0, 0.0, 0.0)",-0.632,-1.41,-10.276,"(0.0, 0.0, 0.0, 0.0, 0.0, 0.0, 0.0, 0.0, 0.0)",0,0,0,,0.2527,0.1637,0.3404,"(0.0, 0.0, 0.0, 0.0, 0.0, 0.0, 0.0, 0.0, 0.0)","b'$VNYMR,+003.321,-003.246,+006.955,+00.2527,+00.1637,+00.3404,-00.632,-01.410,-10.276,+00.003517,-00.001180,-00.006508*61\r\n'"
1678087504.5081356,0,1678087504,500083684,imu1_frame,0,0,0,,0.061507939274790036,-0.026557273737416037,0.030399370134558394,0.9972900094321745,"(0.0, 0.0, 0.0, 0.0, 0.0, 0.0, 0.0, 0.0, 0.0)",0.004652,-0.001714,-0.020125,"(0.0, 0.0, 0.0, 0.0, 0.0, 0.0, 0.0, 0.0, 0.0)",-0.602,-1.28,-10.251,"(0.0, 0.0, 0.0, 0.0, 0.0, 0.0, 0.0, 0.0, 0.0)",0,0,0,,0.2545,0.1618,0.3415,"(0.0, 0.0, 0.0, 0.0, 0.0, 0.0, 0.0, 0.0, 0.0)","b'$VNYMR,+003.294,-003.251,+006.965,+00.2545,+00.1618,+00.3415,-00.602,-01.280,-10.251,+00.004652,-00.001714,-00.020125*6A\r\n'"
1678087504.55221,0,1678087504,525092840,imu1_frame,0,0,0,,0.061501683302234274,-0.026599487327194,0.03013984704133064,0.9972971472160378,"(0.0, 0.0, 0.0, 0.0, 0.0, 0.0, 0.0, 0.0, 0.0)",-0.006337,-0.014025,-0.023803,"(0.0, 0.0, 0.0, 0.0, 0.0, 0.0, 0.0, 0.0, 0.0)",-0.616,-1.214,-10.153,"(0.0, 0.0, 0.0, 0.0, 0.0, 0.0, 0.0, 0.0, 0.0)",0,0,0,,0.2536,0.1664,0.3394,"(0.0, 0.0, 0.0, 0.0, 0.0, 0.0, 0.0, 0.0, 0.0)","b'$VNYMR,+003.264,-003.254,+006.965,+00.2536,+00.1664,+00.3394,-00.616,-01.214,-10.153,-00.006337,-00.014025,-00.023803*65\r\n'"
1678087504.5541162,0,1678087504,550072669,imu1_frame,0,0,0,,0.061408817980183085,-0.026735634166748286,0.02981359107315243,0.9973090357192705,"(0.0, 0.0, 0.0, 0.0, 0.0, 0.0, 0.0, 0.0, 0.0)",-0.008833,-0.006857,-0.020387,"(0.0, 0.0, 0.0, 0.0, 0.0, 0.0, 0.0, 0.0, 0.0)",-0.601,-1.087,-10.181,"(0.0, 0.0, 0.0, 0.0, 0.0, 0.0, 0.0, 0.0, 0.0)",0,0,0,,0.2519,0.1664,0.3403,"(0.0, 0.0, 0.0, 0.0, 0.0, 0.0, 0.0, 0.0, 0.0)","b'$VNYMR,+003.226,-003.267,+006.955,+00.2519,+00.1664,+00.3403,-00.601,-01.087,-10.181,-00.008833,-00.006857,-00.020387*6E\r\n'"
1678087504.5962782,0,1678087504,575097084,imu1_frame,0,0,0,,0.06128110955246402,-0.026798841015855186,0.02955183117139546,0.9973229852994682,"(0.0, 0.0, 0.0, 0.0, 0.0, 0.0, 0.0, 0.0, 0.0)",-0.005804,-0.005504,-0.015015,"(0.0, 0.0, 0.0, 0.0, 0.0, 0.0, 0.0, 0.0, 0.0)",-0.607,-0.995,-10.236,"(0.0, 0.0, 0.0, 0.0, 0.0, 0.0, 0.0, 0.0, 0.0)",0,0,0,,0.2554,0.1672,0.3385,"(0.0, 0.0, 0.0, 0.0, 0.0, 0.0, 0.0, 0.0, 0.0)","b'$VNYMR,+003.196,-003.272,+006.941,+00.2554,+00.1672,+00.3385,-00.607,-00.995,-10.236,-00.005804,-00.005504,-00.015015*6D\r\n'"
1678087504.640144,0,1678087504,600189447,imu1_frame,0,0,0,,0.06113267885301083,-0.026813529484548924,0.029522264678515434,0.9973325754737421,"(0.0, 0.0, 0.0, 0.0, 0.0, 0.0, 0.0, 0.0, 0.0)",-0.009229,0.004416,0.008642,"(0.0, 0.0, 0.0, 0.0, 0.0, 0.0, 0.0, 0.0, 0.0)",-0.601,-0.969,-10.222,"(0.0, 0.0, 0.0, 0.0, 0.0, 0.0, 0.0, 0.0, 0.0)",0,0,0,,0.2527,0.1655,0.3394,"(0.0, 0.0, 0.0, 0.0, 0.0, 0.0, 0.0, 0.0, 0.0)","b'$VNYMR,+003.193,-003.273,+006.924,+00.2527,+00.1655,+00.3394,-00.601,-00.969,-10.222,-00.009229,+00.004416,+00.008642*69\r\n'"
1678087504.6401753,0,1678087504,625000476,imu1_frame,0,0,0,,0.06104302865786892,-0.026793276856035976,0.02975416341503775,0.9973317195031258,"(0.0, 0.0, 0.0, 0.0, 0.0, 0.0, 0.0, 0.0, 0.0)",-0.002954,0.000125,0.01829,"(0.0, 0.0, 0.0, 0.0, 0.0, 0.0, 0.0, 0.0, 0.0)",-0.623,-1.134,-10.095,"(0.0, 0.0, 0.0, 0.0, 0.0, 0.0, 0.0, 0.0, 0.0)",0,0,0,,0.2536,0.1645,0.3365,"(0.0, 0.0, 0.0, 0.0, 0.0, 0.0, 0.0, 0.0, 0.0)","b'$VNYMR,+003.220,-003.272,+006.913,+00.2536,+00.1645,+00.3365,-00.623,-01.134,-10.095,-00.002954,+00.000125,+00.018290*66\r\n'"
1678087504.6841507,0,1678087504,650080680,imu1_frame,0,0,0,,0.06087144836405757,-0.026930235621703547,0.030027848606708554,0.9973303151371034,"(0.0, 0.0, 0.0, 0.0, 0.0, 0.0, 0.0, 0.0, 0.0)",-0.011346,-0.003051,0.025629,"(0.0, 0.0, 0.0, 0.0, 0.0, 0.0, 0.0, 0.0, 0.0)",-0.567,-1.222,-10.142,"(0.0, 0.0, 0.0, 0.0, 0.0, 0.0, 0.0, 0.0, 0.0)",0,0,0,,0.2536,0.1655,0.3385,"(0.0, 0.0, 0.0, 0.0, 0.0, 0.0, 0.0, 0.0, 0.0)","b'$VNYMR,+003.251,-003.289,+006.892,+00.2536,+00.1655,+00.3385,-00.567,-01.222,-10.142,-00.011346,-00.003051,+00.025629*6B\r\n'"
1678087504.6841872,0,1678087504,675052881,imu1_frame,0,0,0,,0.06067405982161968,-0.027113723156963008,0.03026853270563969,0.9973300960109334,"(0.0, 0.0, 0.0, 0.0, 0.0, 0.0, 0.0, 0.0, 0.0)",-0.024186,-0.022954,0.022289,"(0.0, 0.0, 0.0, 0.0, 0.0, 0.0, 0.0, 0.0, 0.0)",-0.583,-1.278,-10.183,"(0.0, 0.0, 0.0, 0.0, 0.0, 0.0, 0.0, 0.0, 0.0)",0,0,0,,0.2553,0.1654,0.3385,"(0.0, 0.0, 0.0, 0.0, 0.0, 0.0, 0.0, 0.0, 0.0)","b'$VNYMR,+003.278,-003.311,+006.868,+00.2553,+00.1654,+00.3385,-00.583,-01.278,-10.183,-00.024186,-00.022954,+00.022289*61\r\n'"
1678087504.7285182,0,1678087504,699955701,imu1_frame,0,0,0,,0.06031022038274478,-0.02722192196913177,0.030534817561205792,0.9973410997237582,"(0.0, 0.0, 0.0, 0.0, 0.0, 0.0, 0.0, 0.0, 0.0)",-0.026884,-0.000149,0.019185,"(0.0, 0.0, 0.0, 0.0, 0.0, 0.0, 0.0, 0.0, 0.0)",-0.624,-1.41,-10.294,"(0.0, 0.0, 0.0, 0.0, 0.0, 0.0, 0.0, 0.0, 0.0)",0,0,0,,0.2553,0.1645,0.3385,"(0.0, 0.0, 0.0, 0.0, 0.0, 0.0, 0.0, 0.0, 0.0)","b'$VNYMR,+003.309,-003.324,+006.825,+00.2553,+00.1645,+00.3385,-00.624,-01.410,-10.294,-00.026884,-00.000149,+00.019185*60\r\n'"
1678087504.7298143,0,1678087504,724988698,imu1_frame,0,0,0,,0.06011122990428177,-0.027188511431868175,0.03060564518550273,0.99735185334379,"(0.0, 0.0, 0.0, 0.0, 0.0, 0.0, 0.0, 0.0, 0.0)",-0.010645,0.013142,2.3e-05,"(0.0, 0.0, 0.0, 0.0, 0.0, 0.0, 0.0, 0.0, 0.0)",-0.563,-1.326,-10.37,"(0.0, 0.0, 0.0, 0.0, 0.0, 0.0, 0.0, 0.0, 0.0)",0,0,0,,0.2545,0.1645,0.3414,"(0.0, 0.0, 0.0, 0.0, 0.0, 0.0, 0.0, 0.0, 0.0)","b'$VNYMR,+003.318,-003.320,+006.802,+00.2545,+00.1645,+00.3414,-00.563,-01.326,-10.370,-00.010645,+00.013142,+00.000023*6C\r\n'"
1678087504.7721426,0,1678087504,749999284,imu1_frame,0,0,0,,0.06000772273729921,-0.027078884252536312,0.030735946736141606,0.997357061847839,"(0.0, 0.0, 0.0, 0.0, 0.0, 0.0, 0.0, 0.0, 0.0)",-0.008723,0.000896,0.016225,"(0.0, 0.0, 0.0, 0.0, 0.0, 0.0, 0.0, 0.0, 0.0)",-0.557,-1.313,-10.197,"(0.0, 0.0, 0.0, 0.0, 0.0, 0.0, 0.0, 0.0, 0.0)",0,0,0,,0.2545,0.1681,0.3375,"(0.0, 0.0, 0.0, 0.0, 0.0, 0.0, 0.0, 0.0, 0.0)","b'$VNYMR,+003.334,-003.308,+006.790,+00.2545,+00.1681,+00.3375,-00.557,-01.313,-10.197,-00.008723,+00.000896,+00.016225*67\r\n'"
1678087504.8161383,0,1678087504,775092840,imu1_frame,0,0,0,,0.059938284035573,-0.026951321287550505,0.03085749246399511,0.997360939452995,"(0.0, 0.0, 0.0, 0.0, 0.0, 0.0, 0.0, 0.0, 0.0)",-0.001565,0.013064,0.008863,"(0.0, 0.0, 0.0, 0.0, 0.0, 0.0, 0.0, 0.0, 0.0)",-0.55,-1.247,-10.154,"(0.0, 0.0, 0.0, 0.0, 0.0, 0.0, 0.0, 0.0, 0.0)",0,0,0,,0.2527,0.1646,0.3384,"(0.0, 0.0, 0.0, 0.0, 0.0, 0.0, 0.0, 0.0, 0.0)","b'$VNYMR,+003.349,-003.294,+006.782,+00.2527,+00.1646,+00.3384,-00.550,-01.247,-10.154,-00.001565,+00.013064,+00.008863*6A\r\n'"
1678087504.8161643,0,1678087504,800040960,imu1_frame,0,0,0,,0.060018652160343744,-0.026824217468307203,0.031044469220146937,0.9973537304692394,"(0.0, 0.0, 0.0, 0.0, 0.0, 0.0, 0.0, 0.0, 0.0)",0.006534,0.003509,0.005809,"(0.0, 0.0, 0.0, 0.0, 0.0, 0.0, 0.0, 0.0, 0.0)",-0.579,-1.331,-10.11,"(0.0, 0.0, 0.0, 0.0, 0.0, 0.0, 0.0, 0.0, 0.0)",0,0,0,,0.2519,0.1637,0.3433,"(0.0, 0.0, 0.0, 0.0, 0.0, 0.0, 0.0, 0.0, 0.0)","b'$VNYMR,+003.371,-003.281,+006.791,+00.2519,+00.1637,+00.3433,-00.579,-01.331,-10.110,+00.006534,+00.003509,+00.005809*67\r\n'"
1678087504.860399,0,1678087504,824948549,imu1_frame,0,0,0,,0.0600296278874645,-0.026680938965304178,0.03094924396831226,0.9973598726484899,"(0.0, 0.0, 0.0, 0.0, 0.0, 0.0, 0.0, 0.0, 0.0)",-0.001424,0.014889,-0.008964,"(0.0, 0.0, 0.0, 0.0, 0.0, 0.0, 0.0, 0.0, 0.0)",-0.538,-1.239,-10.166,"(0.0, 0.0, 0.0, 0.0, 0.0, 0.0, 0.0, 0.0, 0.0)",0,0,0,,0.2527,0.1628,0.3433,"(0.0, 0.0, 0.0, 0.0, 0.0, 0.0, 0.0, 0.0, 0.0)","b'$VNYMR,+003.361,-003.264,+006.793,+00.2527,+00.1628,+00.3433,-00.538,-01.239,-10.166,-00.001424,+00.014889,-00.008964*62\r\n'"
1678087504.8604667,0,1678087504,849982976,imu1_frame,0,0,0,,0.05997054338486444,-0.02655009082758656,0.030826557091505374,0.9973707184297398,"(0.0, 0.0, 0.0, 0.0, 0.0, 0.0, 0.0, 0.0, 0.0)",-0.008602,0.00929,-0.009866,"(0.0, 0.0, 0.0, 0.0, 0.0, 0.0, 0.0, 0.0, 0.0)",-0.551,-1.218,-10.176,"(0.0, 0.0, 0.0, 0.0, 0.0, 0.0, 0.0, 0.0, 0.0)",0,0,0,,0.2536,0.1645,0.3375,"(0.0, 0.0, 0.0, 0.0, 0.0, 0.0, 0.0, 0.0, 0.0)","b'$VNYMR,+003.348,-003.248,+006.787,+00.2536,+00.1645,+00.3375,-00.551,-01.218,-10.176,-00.008602,+00.009290,-00.009866*62\r\n'"
1678087504.908135,0,1678087504,875051736,imu1_frame,0,0,0,,0.05988515373634922,-0.026429781854832572,0.03068629107049203,0.9973833698901424,"(0.0, 0.0, 0.0, 0.0, 0.0, 0.0, 0.0, 0.0, 0.0)",-0.004414,0.005549,-0.00675,"(0.0, 0.0, 0.0, 0.0, 0.0, 0.0, 0.0, 0.0, 0.0)",-0.546,-1.151,-10.185,"(0.0, 0.0, 0.0, 0.0, 0.0, 0.0, 0.0, 0.0, 0.0)",0,0,0,,0.2554,0.169,0.3375,"(0.0, 0.0, 0.0, 0.0, 0.0, 0.0, 0.0, 0.0, 0.0)","b'$VNYMR,+003.333,-003.233,+006.778,+00.2554,+00.1690,+00.3375,-00.546,-01.151,-10.185,-00.004414,+00.005549,-00.006750*69\r\n'"
1678087504.9081607,0,1678087504,899909973,imu1_frame,0,0,0,,0.059824147952888054,-0.026348615542755745,0.03075844115508313,0.9973869560398312,"(0.0, 0.0, 0.0, 0.0, 0.0, 0.0, 0.0, 0.0, 0.0)",-0.009327,0.004816,0.00492,"(0.0, 0.0, 0.0, 0.0, 0.0, 0.0, 0.0, 0.0, 0.0)",-0.587,-1.213,-10.185,"(0.0, 0.0, 0.0, 0.0, 0.0, 0.0, 0.0, 0.0, 0.0)",0,0,0,,0.2528,0.1682,0.3384,"(0.0, 0.0, 0.0, 0.0, 0.0, 0.0, 0.0, 0.0, 0.0)","b'$VNYMR,+003.342,-003.224,+006.771,+00.2528,+00.1682,+00.3384,-00.587,-01.213,-10.185,-00.009327,+00.004816,+00.004920*6F\r\n'"
1678087504.9520845,0,1678087504,924966335,imu1_frame,0,0,0,,0.059709279692210834,-0.026254268247395917,0.030784692719936033,0.9973955173408242,"(0.0, 0.0, 0.0, 0.0, 0.0, 0.0, 0.0, 0.0, 0.0)",-0.009121,0.00168,0.004475,"(0.0, 0.0, 0.0, 0.0, 0.0, 0.0, 0.0, 0.0, 0.0)",-0.573,-1.179,-10.222,"(0.0, 0.0, 0.0, 0.0, 0.0, 0.0, 0.0, 0.0, 0.0)",0,0,0,,0.2545,0.1672,0.3385,"(0.0, 0.0, 0.0, 0.0, 0.0, 0.0, 0.0, 0.0, 0.0)","b'$VNYMR,+003.346,-003.213,+006.758,+00.2545,+00.1672,+00.3385,-00.573,-01.179,-10.222,-00.009121,+00.001680,+00.004475*66\r\n'"
1678087504.953818,0,1678087504,949906587,imu1_frame,0,0,0,,0.059722775019306014,-0.026059098903052528,0.03082622110895723,0.9973985450162317,"(0.0, 0.0, 0.0, 0.0, 0.0, 0.0, 0.0, 0.0, 0.0)",0.005625,0.020802,0.003131,"(0.0, 0.0, 0.0, 0.0, 0.0, 0.0, 0.0, 0.0, 0.0)",-0.574,-1.16,-10.156,"(0.0, 0.0, 0.0, 0.0, 0.0, 0.0, 0.0, 0.0, 0.0)",0,0,0,,0.2528,0.1655,0.3404,"(0.0, 0.0, 0.0, 0.0, 0.0, 0.0, 0.0, 0.0, 0.0)","b'$VNYMR,+003.352,-003.191,+006.760,+00.2528,+00.1655,+00.3404,-00.574,-01.160,-10.156,+00.005625,+00.020802,+00.003131*62\r\n'"
1678087504.9962094,0,1678087504,974941968,imu1_frame,0,0,0,,0.05969643516201636,-0.025912293998666062,0.03095669395783134,0.9973999056285674,"(0.0, 0.0, 0.0, 0.0, 0.0, 0.0, 0.0, 0.0, 0.0)",-0.000538,0.011886,0.014026,"(0.0, 0.0, 0.0, 0.0, 0.0, 0.0, 0.0, 0.0, 0.0)",-0.553,-1.146,-10.168,"(0.0, 0.0, 0.0, 0.0, 0.0, 0.0, 0.0, 0.0, 0.0)",0,0,0,,0.2527,0.1637,0.3404,"(0.0, 0.0, 0.0, 0.0, 0.0, 0.0, 0.0, 0.0, 0.0)","b'$VNYMR,+003.368,-003.175,+006.757,+00.2527,+00.1637,+00.3404,-00.553,-01.146,-10.168,-00.000538,+00.011886,+00.014026*61\r\n'"
1678087505.0443795,0,1678087504,999929428,imu1_frame,0,0,0,,0.05975267999924761,-0.025762373505268193,0.03124637545377801,0.997391388255024,"(0.0, 0.0, 0.0, 0.0, 0.0, 0.0, 0.0, 0.0, 0.0)",0.007509,0.007353,0.020465,"(0.0, 0.0, 0.0, 0.0, 0.0, 0.0, 0.0, 0.0, 0.0)",-0.585,-1.253,-10.147,"(0.0, 0.0, 0.0, 0.0, 0.0, 0.0, 0.0, 0.0, 0.0)",0,0,0,,0.2545,0.1664,0.3404,"(0.0, 0.0, 0.0, 0.0, 0.0, 0.0, 0.0, 0.0, 0.0)","b'$VNYMR,+003.402,-003.160,+006.763,+00.2545,+00.1664,+00.3404,-00.585,-01.253,-10.147,+00.007509,+00.007353,+00.020465*69\r\n'"
1678087505.0444462,0,1678087505,25030612,imu1_frame,0,0,0,,0.0597892865448134,-0.02565509608484662,0.031415769523957776,0.9973866385131479,"(0.0, 0.0, 0.0, 0.0, 0.0, 0.0, 0.0, 0.0, 0.0)",-0.002543,0.007619,0.008524,"(0.0, 0.0, 0.0, 0.0, 0.0, 0.0, 0.0, 0.0, 0.0)",-0.54,-1.323,-10.084,"(0.0, 0.0, 0.0, 0.0, 0.0, 0.0, 0.0, 0.0, 0.0)",0,0,0,,0.2527,0.1646,0.3404,"(0.0, 0.0, 0.0, 0.0, 0.0, 0.0, 0.0, 0.0, 0.0)","b'$VNYMR,+003.422,-003.149,+006.767,+00.2527,+00.1646,+00.3404,-00.540,-01.323,-10.084,-00.002543,+00.007619,+00.008524*69\r\n'"
1678087505.0881443,0,1678087505,49899339,imu1_frame,0,0,0,,0.05978232806745752,-0.025632743959813933,0.03150156922867263,0.9973849241010497,"(0.0, 0.0, 0.0, 0.0, 0.0, 0.0, 0.0, 0.0, 0.0)",0.003873,0.009719,0.009038,"(0.0, 0.0, 0.0, 0.0, 0.0, 0.0, 0.0, 0.0, 0.0)",-0.555,-1.285,-10.239,"(0.0, 0.0, 0.0, 0.0, 0.0, 0.0, 0.0, 0.0, 0.0)",0,0,0,,0.2528,0.1664,0.3423,"(0.0, 0.0, 0.0, 0.0, 0.0, 0.0, 0.0, 0.0, 0.0)","b'$VNYMR,+003.432,-003.147,+006.766,+00.2528,+00.1664,+00.3423,-00.555,-01.285,-10.239,+00.003873,+00.009719,+00.009038*6F\r\n'"
1678087505.0881646,0,1678087505,74830770,imu1_frame,0,0,0,,0.05997763105999549,-0.02547078490366052,0.03148014134324576,0.9973780244169368,"(0.0, 0.0, 0.0, 0.0, 0.0, 0.0, 0.0, 0.0, 0.0)",0.016414,0.010286,-0.006756,"(0.0, 0.0, 0.0, 0.0, 0.0, 0.0, 0.0, 0.0, 0.0)",-0.548,-1.283,-10.1,"(0.0, 0.0, 0.0, 0.0, 0.0, 0.0, 0.0, 0.0, 0.0)",0,0,0,,0.2519,0.1628,0.3365,"(0.0, 0.0, 0.0, 0.0, 0.0, 0.0, 0.0, 0.0, 0.0)","b'$VNYMR,+003.430,-003.129,+006.789,+00.2519,+00.1628,+00.3365,-00.548,-01.283,-10.100,+00.016414,+00.010286,-00.006756*6C\r\n'"
1678087505.1362906,0,1678087505,99922895,imu1_frame,0,0,0,,0.06009676923042605,-0.025454774119589747,0.03139519530910048,0.9973739391592751,"(0.0, 0.0, 0.0, 0.0, 0.0, 0.0, 0.0, 0.0, 0.0)",0.003906,-0.00283,0.001473,"(0.0, 0.0, 0.0, 0.0, 0.0, 0.0, 0.0, 0.0, 0.0)",-0.526,-1.184,-10.066,"(0.0, 0.0, 0.0, 0.0, 0.0, 0.0, 0.0, 0.0, 0.0)",0,0,0,,0.2519,0.1637,0.3384,"(0.0, 0.0, 0.0, 0.0, 0.0, 0.0, 0.0, 0.0, 0.0)","b'$VNYMR,+003.420,-003.127,+006.803,+00.2519,+00.1637,+00.3384,-00.526,-01.184,-10.066,+00.003906,-00.002830,+00.001473*6F\r\n'"
1678087505.1363494,0,1678087505,124803304,imu1_frame,0,0,0,,0.06014033469622673,-0.025471862969245765,0.031379919814490044,0.9973713576055502,"(0.0, 0.0, 0.0, 0.0, 0.0, 0.0, 0.0, 0.0, 0.0)",0.003899,-0.006389,-0.006151,"(0.0, 0.0, 0.0, 0.0, 0.0, 0.0, 0.0, 0.0, 0.0)",-0.554,-1.27,-10.113,"(0.0, 0.0, 0.0, 0.0, 0.0, 0.0, 0.0, 0.0, 0.0)",0,0,0,,0.2527,0.1637,0.3404,"(0.0, 0.0, 0.0, 0.0, 0.0, 0.0, 0.0, 0.0, 0.0)","b'$VNYMR,+003.418,-003.129,+006.808,+00.2527,+00.1637,+00.3404,-00.554,-01.270,-10.113,+00.003899,-00.006389,-00.006151*63\r\n'"
1678087505.1801376,0,1678087505,149866580,imu1_frame,0,0,0,,0.060252683990091704,-0.025507327315262562,0.03131522659859541,0.9973657036956408,"(0.0, 0.0, 0.0, 0.0, 0.0, 0.0, 0.0, 0.0, 0.0)",0.014928,-0.001369,-0.004811,"(0.0, 0.0, 0.0, 0.0, 0.0, 0.0, 0.0, 0.0, 0.0)",-0.509,-1.124,-10.069,"(0.0, 0.0, 0.0, 0.0, 0.0, 0.0, 0.0, 0.0, 0.0)",0,0,0,,0.2553,0.1618,0.3405,"(0.0, 0.0, 0.0, 0.0, 0.0, 0.0, 0.0, 0.0, 0.0)","b'$VNYMR,+003.410,-003.133,+006.821,+00.2553,+00.1618,+00.3405,-00.509,-01.124,-10.069,+00.014928,-00.001369,-00.004811*69\r\n'"
1678087505.18017,0,1678087505,174881458,imu1_frame,0,0,0,,0.06031239421770074,-0.02572937172071601,0.03137339344785992,0.997354563191121,"(0.0, 0.0, 0.0, 0.0, 0.0, 0.0, 0.0, 0.0, 0.0)",0.001324,-0.019929,0.000419,"(0.0, 0.0, 0.0, 0.0, 0.0, 0.0, 0.0, 0.0, 0.0)",-0.554,-1.255,-10.309,"(0.0, 0.0, 0.0, 0.0, 0.0, 0.0, 0.0, 0.0, 0.0)",0,0,0,,0.2527,0.1636,0.3375,"(0.0, 0.0, 0.0, 0.0, 0.0, 0.0, 0.0, 0.0, 0.0)","b'$VNYMR,+003.415,-003.159,+006.827,+00.2527,+00.1636,+00.3375,-00.554,-01.255,-10.309,+00.001324,-00.019929,+00.000419*62\r\n'"
1678087505.228166,0,1678087505,199939012,imu1_frame,0,0,0,,0.06035967381676578,-0.02579342400673606,0.031448243240239156,0.9973476911548176,"(0.0, 0.0, 0.0, 0.0, 0.0, 0.0, 0.0, 0.0, 0.0)",0.003887,-0.002225,0.000592,"(0.0, 0.0, 0.0, 0.0, 0.0, 0.0, 0.0, 0.0, 0.0)",-0.594,-1.361,-10.334,"(0.0, 0.0, 0.0, 0.0, 0.0, 0.0, 0.0, 0.0, 0.0)",0,0,0,,0.2528,0.1682,0.3393,"(0.0, 0.0, 0.0, 0.0, 0.0, 0.0, 0.0, 0.0, 0.0)","b'$VNYMR,+003.423,-003.167,+006.832,+00.2528,+00.1682,+00.3393,-00.594,-01.361,-10.334,+00.003887,-00.002225,+00.000592*6D\r\n'"
1678087505.2290232,0,1678087505,224897623,imu1_frame,0,0,0,,0.060525537623899235,-0.025649469645071952,0.03128734587783164,0.9973464122310689,"(0.0, 0.0, 0.0, 0.0, 0.0, 0.0, 0.0, 0.0, 0.0)",0.020359,0.018721,-0.013337,"(0.0, 0.0, 0.0, 0.0, 0.0, 0.0, 0.0, 0.0, 0.0)",-0.514,-1.179,-10.277,"(0.0, 0.0, 0.0, 0.0, 0.0, 0.0, 0.0, 0.0, 0.0)",0,0,0,,0.2536,0.17,0.3364,"(0.0, 0.0, 0.0, 0.0, 0.0, 0.0, 0.0, 0.0, 0.0)","b'$VNYMR,+003.405,-003.150,+006.852,+00.2536,+00.1700,+00.3364,-00.514,-01.179,-10.277,+00.020359,+00.018721,-00.013337*6A\r\n'"
1678087505.2763925,0,1678087505,249869823,imu1_frame,0,0,0,,0.06083308439064036,-0.025467678688110992,0.03125025453178419,0.9973335223371665,"(0.0, 0.0, 0.0, 0.0, 0.0, 0.0, 0.0, 0.0, 0.0)",0.02569,-0.007132,-0.007773,"(0.0, 0.0, 0.0, 0.0, 0.0, 0.0, 0.0, 0.0, 0.0)",-0.53,-1.175,-9.84,"(0.0, 0.0, 0.0, 0.0, 0.0, 0.0, 0.0, 0.0, 0.0)",0,0,0,,0.2527,0.1655,0.3374,"(0.0, 0.0, 0.0, 0.0, 0.0, 0.0, 0.0, 0.0, 0.0)","b'$VNYMR,+003.401,-003.130,+006.888,+00.2527,+00.1655,+00.3374,-00.530,-01.175,-09.840,+00.025690,-00.007132,-00.007773*6B\r\n'"
1678087505.3202407,0,1678087505,274806261,imu1_frame,0,0,0,,0.06106423850678401,-0.025736808795722044,0.031167673047365552,0.9973150713818636,"(0.0, 0.0, 0.0, 0.0, 0.0, 0.0, 0.0, 0.0, 0.0)",0.017154,-0.017231,-0.001411,"(0.0, 0.0, 0.0, 0.0, 0.0, 0.0, 0.0, 0.0, 0.0)",-0.512,-1.074,-10.122,"(0.0, 0.0, 0.0, 0.0, 0.0, 0.0, 0.0, 0.0, 0.0)",0,0,0,,0.2519,0.1655,0.3393,"(0.0, 0.0, 0.0, 0.0, 0.0, 0.0, 0.0, 0.0, 0.0)","b'$VNYMR,+003.389,-003.161,+006.914,+00.2519,+00.1655,+00.3393,-00.512,-01.074,-10.122,+00.017154,-00.017231,-00.001411*63\r\n'"
1678087505.3202674,0,1678087505,299811840,imu1_frame,0,0,0,,0.061153128929987845,-0.02604343551077816,0.03125801443446488,0.9972988372711977,"(0.0, 0.0, 0.0, 0.0, 0.0, 0.0, 0.0, 0.0, 0.0)",0.002124,-0.032556,0.001502,"(0.0, 0.0, 0.0, 0.0, 0.0, 0.0, 0.0, 0.0, 0.0)",-0.546,-1.261,-10.185,"(0.0, 0.0, 0.0, 0.0, 0.0, 0.0, 0.0, 0.0, 0.0)",0,0,0,,0.251,0.1637,0.3403,"(0.0, 0.0, 0.0, 0.0, 0.0, 0.0, 0.0, 0.0, 0.0)","b'$VNYMR,+003.397,-003.197,+006.923,+00.2510,+00.1637,+00.3403,-00.546,-01.261,-10.185,+00.002124,-00.032556,+00.001502*6F\r\n'"
1678087505.364143,0,1678087505,324851989,imu1_frame,0,0,0,,0.06114137550247004,-0.02628112136191501,0.031236762754047236,0.9972939885080394,"(0.0, 0.0, 0.0, 0.0, 0.0, 0.0, 0.0, 0.0, 0.0)",0.000925,-0.00692,-0.00359,"(0.0, 0.0, 0.0, 0.0, 0.0, 0.0, 0.0, 0.0, 0.0)",-0.523,-1.293,-10.407,"(0.0, 0.0, 0.0, 0.0, 0.0, 0.0, 0.0, 0.0, 0.0)",0,0,0,,0.2553,0.1663,0.3366,"(0.0, 0.0, 0.0, 0.0, 0.0, 0.0, 0.0, 0.0, 0.0)","b'$VNYMR,+003.393,-003.224,+006.921,+00.2553,+00.1663,+00.3366,-00.523,-01.293,-10.407,+00.000925,-00.006920,-00.003590*6F\r\n'"
1678087505.3641748,0,1678087505,349883794,imu1_frame,0,0,0,,0.06119482147123752,-0.026332243055541153,0.031232552788571018,0.9972894938016126,"(0.0, 0.0, 0.0, 0.0, 0.0, 0.0, 0.0, 0.0, 0.0)",0.004623,-0.000492,0.001387,"(0.0, 0.0, 0.0, 0.0, 0.0, 0.0, 0.0, 0.0, 0.0)",-0.514,-1.296,-10.413,"(0.0, 0.0, 0.0, 0.0, 0.0, 0.0, 0.0, 0.0, 0.0)",0,0,0,,0.2527,0.1636,0.3345,"(0.0, 0.0, 0.0, 0.0, 0.0, 0.0, 0.0, 0.0, 0.0)","b'$VNYMR,+003.392,-003.230,+006.927,+00.2527,+00.1636,+00.3345,-00.514,-01.296,-10.413,+00.004623,-00.000492,+00.001387*60\r\n'"
1678087505.4081354,0,1678087505,374833583,imu1_frame,0,0,0,,0.06136545193970179,-0.02618645976300316,0.03124621751046102,0.9972824196407984,"(0.0, 0.0, 0.0, 0.0, 0.0, 0.0, 0.0, 0.0, 0.0)",0.015281,0.011865,-0.001199,"(0.0, 0.0, 0.0, 0.0, 0.0, 0.0, 0.0, 0.0, 0.0)",-0.53,-1.328,-10.25,"(0.0, 0.0, 0.0, 0.0, 0.0, 0.0, 0.0, 0.0, 0.0)",0,0,0,,0.2528,0.1682,0.3393,"(0.0, 0.0, 0.0, 0.0, 0.0, 0.0, 0.0, 0.0, 0.0)","b'$VNYMR,+003.394,-003.214,+006.947,+00.2528,+00.1682,+00.3393,-00.530,-01.328,-10.250,+00.015281,+00.011865,-00.001199*6B\r\n'"
1678087505.4081566,0,1678087505,399842977,imu1_frame,0,0,0,,0.06149776338140462,-0.025994370767009167,0.031177462791543455,0.9972814465342237,"(0.0, 0.0, 0.0, 0.0, 0.0, 0.0, 0.0, 0.0, 0.0)",0.006321,0.011611,-0.003046,"(0.0, 0.0, 0.0, 0.0, 0.0, 0.0, 0.0, 0.0, 0.0)",-0.482,-1.168,-9.994,"(0.0, 0.0, 0.0, 0.0, 0.0, 0.0, 0.0, 0.0, 0.0)",0,0,0,,0.2528,0.1664,0.3413,"(0.0, 0.0, 0.0, 0.0, 0.0, 0.0, 0.0, 0.0, 0.0)","b'$VNYMR,+003.387,-003.192,+006.963,+00.2528,+00.1664,+00.3413,-00.482,-01.168,-09.994,+00.006321,+00.011611,-00.003046*65\r\n'"
1678087505.4521835,0,1678087505,424743413,imu1_frame,0,0,0,,0.06157778721355927,-0.02605284824227085,0.031183165324813113,0.9972748043647107,"(0.0, 0.0, 0.0, 0.0, 0.0, 0.0, 0.0, 0.0, 0.0)",0.001947,-0.013621,0.006318,"(0.0, 0.0, 0.0, 0.0, 0.0, 0.0, 0.0, 0.0, 0.0)",-0.488,-1.17,-10.098,"(0.0, 0.0, 0.0, 0.0, 0.0, 0.0, 0.0, 0.0, 0.0)",0,0,0,,0.2528,0.17,0.3383,"(0.0, 0.0, 0.0, 0.0, 0.0, 0.0, 0.0, 0.0, 0.0)","b'$VNYMR,+003.387,-003.199,+006.972,+00.2528,+00.1700,+00.3383,-00.488,-01.170,-10.098,+00.001947,-00.013621,+00.006318*6C\r\n'"
1678087505.4543726,0,1678087505,449948072,imu1_frame,0,0,0,,0.06151842093192315,-0.026171659925613187,0.031127445502486757,0.9972770980220445,"(0.0, 0.0, 0.0, 0.0, 0.0, 0.0, 0.0, 0.0, 0.0)",-0.008572,-0.002464,-0.013733,"(0.0, 0.0, 0.0, 0.0, 0.0, 0.0, 0.0, 0.0, 0.0)",-0.555,-1.315,-10.339,"(0.0, 0.0, 0.0, 0.0, 0.0, 0.0, 0.0, 0.0, 0.0)",0,0,0,,0.2545,0.1646,0.3424,"(0.0, 0.0, 0.0, 0.0, 0.0, 0.0, 0.0, 0.0, 0.0)","b'$VNYMR,+003.380,-003.212,+006.965,+00.2545,+00.1646,+00.3424,-00.555,-01.315,-10.339,-00.008572,-00.002464,-00.013733*6E\r\n'"
1678087505.4961658,0,1678087505,474798917,imu1_frame,0,0,0,,0.06139878993187994,-0.02611627693860879,0.030946244702258936,0.9972915614867073,"(0.0, 0.0, 0.0, 0.0, 0.0, 0.0, 0.0, 0.0, 0.0)",-0.005983,0.010192,-0.014933,"(0.0, 0.0, 0.0, 0.0, 0.0, 0.0, 0.0, 0.0, 0.0)",-0.547,-1.278,-10.35,"(0.0, 0.0, 0.0, 0.0, 0.0, 0.0, 0.0, 0.0, 0.0)",0,0,0,,0.2536,0.1682,0.3374,"(0.0, 0.0, 0.0, 0.0, 0.0, 0.0, 0.0, 0.0, 0.0)","b'$VNYMR,+003.360,-003.204,+006.952,+00.2536,+00.1682,+00.3374,-00.547,-01.278,-10.350,-00.005983,+00.010192,-00.014933*64\r\n'"
1678087505.5402312,0,1678087505,499729156,imu1_frame,0,0,0,,0.061457149451031694,-0.02587189451765368,0.03076756683750023,0.9972998649785935,"(0.0, 0.0, 0.0, 0.0, 0.0, 0.0, 0.0, 0.0, 0.0)",0.011496,0.017327,-0.018855,"(0.0, 0.0, 0.0, 0.0, 0.0, 0.0, 0.0, 0.0, 0.0)",-0.541,-1.262,-10.25,"(0.0, 0.0, 0.0, 0.0, 0.0, 0.0, 0.0, 0.0, 0.0)",0,0,0,,0.2536,0.1655,0.3414,"(0.0, 0.0, 0.0, 0.0, 0.0, 0.0, 0.0, 0.0, 0.0)","b'$VNYMR,+003.341,-003.175,+006.960,+00.2536,+00.1655,+00.3414,-00.541,-01.262,-10.250,+00.011496,+00.017327,-00.018855*68\r\n'"
1678087505.540268,0,1678087505,524710893,imu1_frame,0,0,0,,0.061579099266571714,-0.025702924758137877,0.0306125327163925,0.9973014825182419,"(0.0, 0.0, 0.0, 0.0, 0.0, 0.0, 0.0, 0.0, 0.0)",0.008256,0.005696,-0.00947,"(0.0, 0.0, 0.0, 0.0, 0.0, 0.0, 0.0, 0.0, 0.0)",-0.504,-1.178,-10.093,"(0.0, 0.0, 0.0, 0.0, 0.0, 0.0, 0.0, 0.0, 0.0)",0,0,0,,0.2536,0.1654,0.3365,"(0.0, 0.0, 0.0, 0.0, 0.0, 0.0, 0.0, 0.0, 0.0)","b'$VNYMR,+003.324,-003.155,+006.975,+00.2536,+00.1654,+00.3365,-00.504,-01.178,-10.093,+00.008256,+00.005696,-00.009470*6C\r\n'"
1678087505.5884483,0,1678087505,549781322,imu1_frame,0,0,0,,0.06154975774153344,-0.025646558333684517,0.03054727511104568,0.9973067458665291,"(0.0, 0.0, 0.0, 0.0, 0.0, 0.0, 0.0, 0.0, 0.0)",-0.006724,0.004516,0.000202,"(0.0, 0.0, 0.0, 0.0, 0.0, 0.0, 0.0, 0.0, 0.0)",-0.523,-1.183,-10.144,"(0.0, 0.0, 0.0, 0.0, 0.0, 0.0, 0.0, 0.0, 0.0)",0,0,0,,0.2536,0.1646,0.3404,"(0.0, 0.0, 0.0, 0.0, 0.0, 0.0, 0.0, 0.0, 0.0)","b'$VNYMR,+003.317,-003.148,+006.972,+00.2536,+00.1646,+00.3404,-00.523,-01.183,-10.144,-00.006724,+00.004516,+00.000202*60\r\n'"
1678087505.5885205,0,1678087505,574941158,imu1_frame,0,0,0,,0.06148947901497405,-0.025628333310902616,0.030588178779687933,0.9973096789970075,"(0.0, 0.0, 0.0, 0.0, 0.0, 0.0, 0.0, 0.0, 0.0)",-0.004353,0.002025,-0.00321,"(0.0, 0.0, 0.0, 0.0, 0.0, 0.0, 0.0, 0.0, 0.0)",-0.564,-1.307,-10.27,"(0.0, 0.0, 0.0, 0.0, 0.0, 0.0, 0.0, 0.0, 0.0)",0,0,0,,0.2536,0.1654,0.3365,"(0.0, 0.0, 0.0, 0.0, 0.0, 0.0, 0.0, 0.0, 0.0)","b'$VNYMR,+003.322,-003.146,+006.965,+00.2536,+00.1654,+00.3365,-00.564,-01.307,-10.270,-00.004353,+00.002025,-00.003210*67\r\n'"
1678087505.6321096,0,1678087505,599676847,imu1_frame,0,0,0,,0.061510511477967544,-0.025398544004598986,0.030618767918044857,0.9973133218760021,"(0.0, 0.0, 0.0, 0.0, 0.0, 0.0, 0.0, 0.0, 0.0)",0.009948,0.024244,0.006128,"(0.0, 0.0, 0.0, 0.0, 0.0, 0.0, 0.0, 0.0, 0.0)",-0.556,-1.25,-10.333,"(0.0, 0.0, 0.0, 0.0, 0.0, 0.0, 0.0, 0.0, 0.0)",0,0,0,,0.2536,0.1646,0.3404,"(0.0, 0.0, 0.0, 0.0, 0.0, 0.0, 0.0, 0.0, 0.0)","b'$VNYMR,+003.327,-003.120,+006.968,+00.2536,+00.1646,+00.3404,-00.556,-01.250,-10.333,+00.009948,+00.024244,+00.006128*69\r\n'"
1678087505.6321373,0,1678087505,624659538,imu1_frame,0,0,0,,0.06173079638727262,-0.025053304174486316,0.030726422699243063,0.997305132682792,"(0.0, 0.0, 0.0, 0.0, 0.0, 0.0, 0.0, 0.0, 0.0)",0.021425,0.031851,0.003547,"(0.0, 0.0, 0.0, 0.0, 0.0, 0.0, 0.0, 0.0, 0.0)",-0.562,-1.292,-10.245,"(0.0, 0.0, 0.0, 0.0, 0.0, 0.0, 0.0, 0.0, 0.0)",0,0,0,,0.251,0.1655,0.3403,"(0.0, 0.0, 0.0, 0.0, 0.0, 0.0, 0.0, 0.0, 0.0)","b'$VNYMR,+003.341,-003.082,+006.994,+00.2510,+00.1655,+00.3403,-00.562,-01.292,-10.245,+00.021425,+00.031851,+00.003547*65\r\n'"
1678087505.6761408,0,1678087505,649672031,imu1_frame,0,0,0,,0.06195887049103646,-0.024644656854408066,0.03086525858657872,0.9972968841164536,"(0.0, 0.0, 0.0, 0.0, 0.0, 0.0, 0.0, 0.0, 0.0)",0.010137,0.02,0.011911,"(0.0, 0.0, 0.0, 0.0, 0.0, 0.0, 0.0, 0.0, 0.0)",-0.537,-1.278,-9.949,"(0.0, 0.0, 0.0, 0.0, 0.0, 0.0, 0.0, 0.0, 0.0)",0,0,0,,0.251,0.1664,0.3422,"(0.0, 0.0, 0.0, 0.0, 0.0, 0.0, 0.0, 0.0, 0.0)","b'$VNYMR,+003.359,-003.037,+007.021,+00.2510,+00.1664,+00.3422,-00.537,-01.278,-09.949,+00.010137,+00.020000,+00.011911*6A\r\n'"
1678087505.6788754,0,1678087505,674864292,imu1_frame,0,0,0,,0.06194879856407926,-0.024406190956817193,0.031051509539380857,0.9972975924741683,"(0.0, 0.0, 0.0, 0.0, 0.0, 0.0, 0.0, 0.0, 0.0)",-0.002601,0.023541,0.020394,"(0.0, 0.0, 0.0, 0.0, 0.0, 0.0, 0.0, 0.0, 0.0)",-0.533,-1.162,-10.007,"(0.0, 0.0, 0.0, 0.0, 0.0, 0.0, 0.0, 0.0, 0.0)",0,0,0,,0.2519,0.1646,0.3384,"(0.0, 0.0, 0.0, 0.0, 0.0, 0.0, 0.0, 0.0, 0.0)","b'$VNYMR,+003.382,-003.011,+007.020,+00.2519,+00.1646,+00.3384,-00.533,-01.162,-10.007,-00.002601,+00.023541,+00.020394*6D\r\n'"
1678087505.7202003,0,1678087505,699677705,imu1_frame,0,0,0,,0.06185809433485083,-0.024312483423830064,0.031340335297688815,0.9972964768304634,"(0.0, 0.0, 0.0, 0.0, 0.0, 0.0, 0.0, 0.0, 0.0)",-0.006286,0.009074,0.027058,"(0.0, 0.0, 0.0, 0.0, 0.0, 0.0, 0.0, 0.0, 0.0)",-0.577,-1.276,-10.243,"(0.0, 0.0, 0.0, 0.0, 0.0, 0.0, 0.0, 0.0, 0.0)",0,0,0,,0.2519,0.1619,0.3394,"(0.0, 0.0, 0.0, 0.0, 0.0, 0.0, 0.0, 0.0, 0.0)","b'$VNYMR,+003.416,-003.002,+007.009,+00.2519,+00.1619,+00.3394,-00.577,-01.276,-10.243,-00.006286,+00.009074,+00.027058*61\r\n'"
1678087505.7641268,0,1678087505,724719285,imu1_frame,0,0,0,,0.06197950894570607,-0.02408569995009517,0.031556928274463894,0.9972876113773015,"(0.0, 0.0, 0.0, 0.0, 0.0, 0.0, 0.0, 0.0, 0.0)",0.021244,0.022569,0.005157,"(0.0, 0.0, 0.0, 0.0, 0.0, 0.0, 0.0, 0.0, 0.0)",-0.559,-1.373,-10.223,"(0.0, 0.0, 0.0, 0.0, 0.0, 0.0, 0.0, 0.0, 0.0)",0,0,0,,0.251,0.1691,0.3393,"(0.0, 0.0, 0.0, 0.0, 0.0, 0.0, 0.0, 0.0, 0.0)","b'$VNYMR,+003.442,-002.978,+007.023,+00.2510,+00.1691,+00.3393,-00.559,-01.373,-10.223,+00.021244,+00.022569,+00.005157*6E\r\n'"
1678087505.764157,0,1678087505,749717950,imu1_frame,0,0,0,,0.06234171347860621,-0.023839677157907597,0.03168250324583419,0.9972669650307464,"(0.0, 0.0, 0.0, 0.0, 0.0, 0.0, 0.0, 0.0, 0.0)",0.027638,0.019446,0.012746,"(0.0, 0.0, 0.0, 0.0, 0.0, 0.0, 0.0, 0.0, 0.0)",-0.543,-1.305,-10.057,"(0.0, 0.0, 0.0, 0.0, 0.0, 0.0, 0.0, 0.0, 0.0)",0,0,0,,0.2519,0.1673,0.3422,"(0.0, 0.0, 0.0, 0.0, 0.0, 0.0, 0.0, 0.0, 0.0)","b'$VNYMR,+003.457,-002.952,+007.065,+00.2519,+00.1673,+00.3422,-00.543,-01.305,-10.057,+00.027638,+00.019446,+00.012746*6E\r\n'"
1678087505.8081923,0,1678087505,774840354,imu1_frame,0,0,0,,0.06261523485051364,-0.023774474299845756,0.0318951501599571,0.9972446069709551,"(0.0, 0.0, 0.0, 0.0, 0.0, 0.0, 0.0, 0.0, 0.0)",0.015401,-0.00305,0.021394,"(0.0, 0.0, 0.0, 0.0, 0.0, 0.0, 0.0, 0.0, 0.0)",-0.517,-1.322,-9.959,"(0.0, 0.0, 0.0, 0.0, 0.0, 0.0, 0.0, 0.0, 0.0)",0,0,0,,0.2528,0.1637,0.3423,"(0.0, 0.0, 0.0, 0.0, 0.0, 0.0, 0.0, 0.0, 0.0)","b'$VNYMR,+003.481,-002.947,+007.096,+00.2528,+00.1637,+00.3423,-00.517,-01.322,-09.959,+00.015401,-00.003050,+00.021394*69\r\n'"
1678087505.8082275,0,1678087505,799673557,imu1_frame,0,0,0,,0.0626551907465778,-0.02402758920100763,0.03216466783896436,0.9972273743597828,"(0.0, 0.0, 0.0, 0.0, 0.0, 0.0, 0.0, 0.0, 0.0)",-0.012803,-0.032063,0.032732,"(0.0, 0.0, 0.0, 0.0, 0.0, 0.0, 0.0, 0.0, 0.0)",-0.566,-1.407,-10.087,"(0.0, 0.0, 0.0, 0.0, 0.0, 0.0, 0.0, 0.0, 0.0)",0,0,0,,0.2519,0.1664,0.3423,"(0.0, 0.0, 0.0, 0.0, 0.0, 0.0, 0.0, 0.0, 0.0)","b'$VNYMR,+003.510,-002.978,+007.099,+00.2519,+00.1664,+00.3423,-00.566,-01.407,-10.087,-00.012803,-00.032063,+00.032732*64\r\n'"
1678087505.8561337,0,1678087505,824838399,imu1_frame,0,0,0,,0.06260796927847231,-0.0242876793913062,0.03208312302530791,0.9972266663249404,"(0.0, 0.0, 0.0, 0.0, 0.0, 0.0, 0.0, 0.0, 0.0)",-0.001902,-0.007622,-0.010602,"(0.0, 0.0, 0.0, 0.0, 0.0, 0.0, 0.0, 0.0, 0.0)",-0.546,-1.365,-10.357,"(0.0, 0.0, 0.0, 0.0, 0.0, 0.0, 0.0, 0.0, 0.0)",0,0,0,,0.2536,0.1619,0.3414,"(0.0, 0.0, 0.0, 0.0, 0.0, 0.0, 0.0, 0.0, 0.0)","b'$VNYMR,+003.499,-003.007,+007.093,+00.2536,+00.1619,+00.3414,-00.546,-01.365,-10.357,-00.001902,-00.007622,-00.010602*61\r\n'"
1678087505.856161,0,1678087505,849534988,imu1_frame,0,0,0,,0.06254142573132251,-0.02427608251661631,0.03187988590909053,0.9972376420691124,"(0.0, 0.0, 0.0, 0.0, 0.0, 0.0, 0.0, 0.0, 0.0)",-0.012464,0.012374,-0.012351,"(0.0, 0.0, 0.0, 0.0, 0.0, 0.0, 0.0, 0.0, 0.0)",-0.504,-1.288,-10.459,"(0.0, 0.0, 0.0, 0.0, 0.0, 0.0, 0.0, 0.0, 0.0)",0,0,0,,0.2519,0.1646,0.3355,"(0.0, 0.0, 0.0, 0.0, 0.0, 0.0, 0.0, 0.0, 0.0)","b'$VNYMR,+003.476,-003.004,+007.086,+00.2519,+00.1646,+00.3355,-00.504,-01.288,-10.459,-00.012464,+00.012374,-00.012351*65\r\n'"
1678087505.9001946,0,1678087505,874722480,imu1_frame,0,0,0,,0.06236430426264237,-0.02411546651263516,0.03159493552529892,0.9972616997949268,"(0.0, 0.0, 0.0, 0.0, 0.0, 0.0, 0.0, 0.0, 0.0)",-0.012969,-0.001482,-0.020628,"(0.0, 0.0, 0.0, 0.0, 0.0, 0.0, 0.0, 0.0, 0.0)",-0.492,-1.182,-10.198,"(0.0, 0.0, 0.0, 0.0, 0.0, 0.0, 0.0, 0.0, 0.0)",0,0,0,,0.251,0.1664,0.3422,"(0.0, 0.0, 0.0, 0.0, 0.0, 0.0, 0.0, 0.0, 0.0)","b'$VNYMR,+003.445,-002.983,+007.067,+00.2510,+00.1664,+00.3422,-00.492,-01.182,-10.198,-00.012969,-00.001482,-00.020628*6C\r\n'"
1678087505.9041705,0,1678087505,899619102,imu1_frame,0,0,0,,0.06205157820139326,-0.02421730224592149,0.03151431023241659,0.9972812903916433,"(0.0, 0.0, 0.0, 0.0, 0.0, 0.0, 0.0, 0.0, 0.0)",-0.030564,0.001124,-0.001127,"(0.0, 0.0, 0.0, 0.0, 0.0, 0.0, 0.0, 0.0, 0.0)",-0.487,-1.17,-10.352,"(0.0, 0.0, 0.0, 0.0, 0.0, 0.0, 0.0, 0.0, 0.0)",0,0,0,,0.251,0.1646,0.3442,"(0.0, 0.0, 0.0, 0.0, 0.0, 0.0, 0.0, 0.0, 0.0)","b'$VNYMR,+003.436,-002.993,+007.031,+00.2510,+00.1646,+00.3442,-00.487,-01.170,-10.352,-00.030564,+00.001124,-00.001127*64\r\n'"
1678087505.9481437,0,1678087505,924849987,imu1_frame,0,0,0,,0.06170754814580563,-0.02423655498920321,0.031654856966051886,0.9972977178027368,"(0.0, 0.0, 0.0, 0.0, 0.0, 0.0, 0.0, 0.0, 0.0)",-0.03131,0.006195,0.024488,"(0.0, 0.0, 0.0, 0.0, 0.0, 0.0, 0.0, 0.0, 0.0)",-0.505,-1.135,-10.479,"(0.0, 0.0, 0.0, 0.0, 0.0, 0.0, 0.0, 0.0, 0.0)",0,0,0,,0.2501,0.1646,0.3412,"(0.0, 0.0, 0.0, 0.0, 0.0, 0.0, 0.0, 0.0, 0.0)","b'$VNYMR,+003.453,-002.995,+006.991,+00.2501,+00.1646,+00.3412,-00.505,-01.135,-10.479,-00.031310,+00.006195,+00.024488*6A\r\n'"
1678087505.9921858,0,1678087505,949578285,imu1_frame,0,0,0,,0.061264904445839166,-0.023839814998810275,0.03178567495214798,0.9973304094290424,"(0.0, 0.0, 0.0, 0.0, 0.0, 0.0, 0.0, 0.0, 0.0)",-0.027576,0.033389,-0.002477,"(0.0, 0.0, 0.0, 0.0, 0.0, 0.0, 0.0, 0.0, 0.0)",-0.541,-1.205,-10.122,"(0.0, 0.0, 0.0, 0.0, 0.0, 0.0, 0.0, 0.0, 0.0)",0,0,0,,0.2501,0.1637,0.3373,"(0.0, 0.0, 0.0, 0.0, 0.0, 0.0, 0.0, 0.0, 0.0)","b'$VNYMR,+003.472,-002.949,+006.941,+00.2501,+00.1637,+00.3373,-00.541,-01.205,-10.122,-00.027576,+00.033389,-00.002477*62\r\n'"
1678087505.9922159,0,1678087505,974646568,imu1_frame,0,0,0,,0.060998000305134296,-0.023638699397768644,0.03177568478550451,0.9973518745688349,"(0.0, 0.0, 0.0, 0.0, 0.0, 0.0, 0.0, 0.0, 0.0)",-0.009534,0.014687,0.009056,"(0.0, 0.0, 0.0, 0.0, 0.0, 0.0, 0.0, 0.0, 0.0)",-0.459,-1.008,-10.04,"(0.0, 0.0, 0.0, 0.0, 0.0, 0.0, 0.0, 0.0, 0.0)",0,0,0,,0.2527,0.1627,0.3375,"(0.0, 0.0, 0.0, 0.0, 0.0, 0.0, 0.0, 0.0, 0.0)","b'$VNYMR,+003.473,-002.925,+006.911,+00.2527,+00.1627,+00.3375,-00.459,-01.008,-10.040,-00.009534,+00.014687,+00.009056*63\r\n'"
1678087506.0363255,0,1678087505,999621868,imu1_frame,0,0,0,,0.06078770207380088,-0.023683005432820262,0.03201732941266082,0.9973559350339963,"(0.0, 0.0, 0.0, 0.0, 0.0, 0.0, 0.0, 0.0, 0.0)",-0.027183,-0.019173,0.006853,"(0.0, 0.0, 0.0, 0.0, 0.0, 0.0, 0.0, 0.0, 0.0)",-0.527,-1.257,-10.0,"(0.0, 0.0, 0.0, 0.0, 0.0, 0.0, 0.0, 0.0, 0.0)",0,0,0,,0.2519,0.1637,0.3462,"(0.0, 0.0, 0.0, 0.0, 0.0, 0.0, 0.0, 0.0, 0.0)","b'$VNYMR,+003.501,-002.931,+006.886,+00.2519,+00.1637,+00.3462,-00.527,-01.257,-10.000,-00.027183,-00.019173,+00.006853*65\r\n'"
1678087506.0363631,0,1678087506,24785518,imu1_frame,0,0,0,,0.060472342905724265,-0.023769833577055824,0.0321888951880839,0.9973675179099137,"(0.0, 0.0, 0.0, 0.0, 0.0, 0.0, 0.0, 0.0, 0.0)",-0.016988,0.005769,0.024265,"(0.0, 0.0, 0.0, 0.0, 0.0, 0.0, 0.0, 0.0, 0.0)",-0.505,-1.314,-10.23,"(0.0, 0.0, 0.0, 0.0, 0.0, 0.0, 0.0, 0.0, 0.0)",0,0,0,,0.2519,0.1637,0.3374,"(0.0, 0.0, 0.0, 0.0, 0.0, 0.0, 0.0, 0.0, 0.0)","b'$VNYMR,+003.521,-002.941,+006.849,+00.2519,+00.1637,+00.3374,-00.505,-01.314,-10.230,-00.016988,+00.005769,+00.024265*6C\r\n'"
1678087506.0801206,0,1678087506,49760818,imu1_frame,0,0,0,,0.06029171368049554,-0.023826381180153386,0.032213724156525625,0.997376302504373,"(0.0, 0.0, 0.0, 0.0, 0.0, 0.0, 0.0, 0.0, 0.0)",-0.021076,-0.015428,-0.009545,"(0.0, 0.0, 0.0, 0.0, 0.0, 0.0, 0.0, 0.0, 0.0)",-0.457,-1.303,-10.204,"(0.0, 0.0, 0.0, 0.0, 0.0, 0.0, 0.0, 0.0, 0.0)",0,0,0,,0.2501,0.1646,0.3403,"(0.0, 0.0, 0.0, 0.0, 0.0, 0.0, 0.0, 0.0, 0.0)","b'$VNYMR,+003.524,-002.947,+006.828,+00.2501,+00.1646,+00.3403,-00.457,-01.303,-10.204,-00.021076,-00.015428,-00.009545*66\r\n'"
1678087506.080165,0,1678087506,74569702,imu1_frame,0,0,0,,0.06004574488315989,-0.023939834031969757,0.03234488283220878,0.9973841794526915,"(0.0, 0.0, 0.0, 0.0, 0.0, 0.0, 0.0, 0.0, 0.0)",-0.017914,-0.008988,0.011884,"(0.0, 0.0, 0.0, 0.0, 0.0, 0.0, 0.0, 0.0, 0.0)",-0.486,-1.431,-10.336,"(0.0, 0.0, 0.0, 0.0, 0.0, 0.0, 0.0, 0.0, 0.0)",0,0,0,,0.251,0.1637,0.3442,"(0.0, 0.0, 0.0, 0.0, 0.0, 0.0, 0.0, 0.0, 0.0)","b'$VNYMR,+003.539,-002.960,+006.799,+00.2510,+00.1637,+00.3442,-00.486,-01.431,-10.336,-00.017914,-00.008988,+00.011884*6F\r\n'"
1678087506.124229,0,1678087506,100414991,imu1_frame,0,0,0,,0.05990849345199521,-0.023883234329593387,0.0324864525381763,0.997389188798312,"(0.0, 0.0, 0.0, 0.0, 0.0, 0.0, 0.0, 0.0, 0.0)",-0.01377,0.007321,0.009378,"(0.0, 0.0, 0.0, 0.0, 0.0, 0.0, 0.0, 0.0, 0.0)",-0.509,-1.389,-10.172,"(0.0, 0.0, 0.0, 0.0, 0.0, 0.0, 0.0, 0.0, 0.0)",0,0,0,,0.2527,0.1628,0.3433,"(0.0, 0.0, 0.0, 0.0, 0.0, 0.0, 0.0, 0.0, 0.0)","b'$VNYMR,+003.556,-002.954,+006.783,+00.2527,+00.1628,+00.3433,-00.509,-01.389,-10.172,-00.013770,+00.007321,+00.009378*6F\r\n'"
1678087506.129776,0,1678087506,125485420,imu1_frame,0,0,0,,0.059601513958900544,-0.023889652097647863,0.03239160973145851,0.9974105111113805,"(0.0, 0.0, 0.0, 0.0, 0.0, 0.0, 0.0, 0.0, 0.0)",-0.028741,0.001709,-0.022788,"(0.0, 0.0, 0.0, 0.0, 0.0, 0.0, 0.0, 0.0, 0.0)",-0.483,-1.331,-10.201,"(0.0, 0.0, 0.0, 0.0, 0.0, 0.0, 0.0, 0.0, 0.0)",0,0,0,,0.251,0.1646,0.3422,"(0.0, 0.0, 0.0, 0.0, 0.0, 0.0, 0.0, 0.0, 0.0)","b'$VNYMR,+003.546,-002.953,+006.748,+00.2510,+00.1646,+00.3422,-00.483,-01.331,-10.201,-00.028741,+00.001709,-00.022788*63\r\n'"
1678087506.1721625,0,1678087506,150525808,imu1_frame,0,0,0,,0.059341213276342,-0.023758667288792334,0.03222902201608581,0.9974344270554525,"(0.0, 0.0, 0.0, 0.0, 0.0, 0.0, 0.0, 0.0, 0.0)",-0.017781,0.01617,-0.02437,"(0.0, 0.0, 0.0, 0.0, 0.0, 0.0, 0.0, 0.0, 0.0)",-0.526,-1.381,-10.186,"(0.0, 0.0, 0.0, 0.0, 0.0, 0.0, 0.0, 0.0, 0.0)",0,0,0,,0.2518,0.1583,0.3404,"(0.0, 0.0, 0.0, 0.0, 0.0, 0.0, 0.0, 0.0, 0.0)","b'$VNYMR,+003.529,-002.936,+006.719,+00.2518,+00.1583,+00.3404,-00.526,-01.381,-10.186,-00.017781,+00.016170,-00.024370*69\r\n'"
1678087506.2163026,0,1678087506,175487041,imu1_frame,0,0,0,,0.059214137977338814,-0.023535632721079728,0.031924992524528455,0.9974570440416609,"(0.0, 0.0, 0.0, 0.0, 0.0, 0.0, 0.0, 0.0, 0.0)",-0.011546,0.008567,-0.021075,"(0.0, 0.0, 0.0, 0.0, 0.0, 0.0, 0.0, 0.0, 0.0)",-0.512,-1.239,-10.039,"(0.0, 0.0, 0.0, 0.0, 0.0, 0.0, 0.0, 0.0, 0.0)",0,0,0,,0.251,0.1682,0.3432,"(0.0, 0.0, 0.0, 0.0, 0.0, 0.0, 0.0, 0.0, 0.0)","b'$VNYMR,+003.496,-002.908,+006.706,+00.2510,+00.1682,+00.3432,-00.512,-01.239,-10.039,-00.011546,+00.008567,-00.021075*61\r\n'"
1678087506.2163553,0,1678087506,200309991,imu1_frame,0,0,0,,0.059149581933641206,-0.023437627586085488,0.03154242453530341,0.9974753530913163,"(0.0, 0.0, 0.0, 0.0, 0.0, 0.0, 0.0, 0.0, 0.0)",-0.007946,-0.005721,-0.030878,"(0.0, 0.0, 0.0, 0.0, 0.0, 0.0, 0.0, 0.0, 0.0)",-0.476,-1.206,-9.956,"(0.0, 0.0, 0.0, 0.0, 0.0, 0.0, 0.0, 0.0, 0.0)",0,0,0,,0.2519,0.1646,0.3403,"(0.0, 0.0, 0.0, 0.0, 0.0, 0.0, 0.0, 0.0, 0.0)","b'$VNYMR,+003.453,-002.894,+006.700,+00.2519,+00.1646,+00.3403,-00.476,-01.206,-09.956,-00.007946,-00.005721,-00.030878*6B\r\n'"
1678087506.26018,0,1678087506,225334644,imu1_frame,0,0,0,,0.05906440688490956,-0.023578533718568277,0.031120582879517647,0.9974903297316998,"(0.0, 0.0, 0.0, 0.0, 0.0, 0.0, 0.0, 0.0, 0.0)",-0.003615,-0.007159,-0.022097,"(0.0, 0.0, 0.0, 0.0, 0.0, 0.0, 0.0, 0.0, 0.0)",-0.45,-1.113,-10.042,"(0.0, 0.0, 0.0, 0.0, 0.0, 0.0, 0.0, 0.0, 0.0)",0,0,0,,0.2519,0.1628,0.3384,"(0.0, 0.0, 0.0, 0.0, 0.0, 0.0, 0.0, 0.0, 0.0)","b'$VNYMR,+003.404,-002.907,+006.691,+00.2519,+00.1628,+00.3384,-00.450,-01.113,-10.042,-00.003615,-00.007159,-00.022097*60\r\n'"
1678087506.2602057,0,1678087506,250476360,imu1_frame,0,0,0,,0.059091090838006455,-0.023818500740397715,0.03089053336197931,0.9974901989266193,"(0.0, 0.0, 0.0, 0.0, 0.0, 0.0, 0.0, 0.0, 0.0)",-0.004237,-0.023081,-0.020491,"(0.0, 0.0, 0.0, 0.0, 0.0, 0.0, 0.0, 0.0, 0.0)",-0.462,-1.251,-10.12,"(0.0, 0.0, 0.0, 0.0, 0.0, 0.0, 0.0, 0.0, 0.0)",0,0,0,,0.251,0.1637,0.3452,"(0.0, 0.0, 0.0, 0.0, 0.0, 0.0, 0.0, 0.0, 0.0)","b'$VNYMR,+003.376,-002.933,+006.694,+00.2510,+00.1637,+00.3452,-00.462,-01.251,-10.120,-00.004237,-00.023081,-00.020491*6B\r\n'"
1678087506.3041337,0,1678087506,275369882,imu1_frame,0,0,0,,0.059045188204779234,-0.023974595701798173,0.030636385130909816,0.9974970157433596,"(0.0, 0.0, 0.0, 0.0, 0.0, 0.0, 0.0, 0.0, 0.0)",-0.002284,-0.009958,-0.00619,"(0.0, 0.0, 0.0, 0.0, 0.0, 0.0, 0.0, 0.0, 0.0)",-0.458,-1.108,-10.283,"(0.0, 0.0, 0.0, 0.0, 0.0, 0.0, 0.0, 0.0, 0.0)",0,0,0,,0.2519,0.1646,0.3403,"(0.0, 0.0, 0.0, 0.0, 0.0, 0.0, 0.0, 0.0, 0.0)","b'$VNYMR,+003.346,-002.949,+006.689,+00.2519,+00.1646,+00.3403,-00.458,-01.108,-10.283,-00.002284,-00.009958,-00.006190*65\r\n'"
1678087506.3041663,0,1678087506,300323009,imu1_frame,0,0,0,,0.058920088322395904,-0.02395839179428958,0.030527493861542864,0.9975081407052505,"(0.0, 0.0, 0.0, 0.0, 0.0, 0.0, 0.0, 0.0, 0.0)",-0.010715,0.00658,-0.014964,"(0.0, 0.0, 0.0, 0.0, 0.0, 0.0, 0.0, 0.0, 0.0)",-0.516,-1.205,-10.312,"(0.0, 0.0, 0.0, 0.0, 0.0, 0.0, 0.0, 0.0, 0.0)",0,0,0,,0.2519,0.1655,0.3423,"(0.0, 0.0, 0.0, 0.0, 0.0, 0.0, 0.0, 0.0, 0.0)","b'$VNYMR,+003.334,-002.946,+006.675,+00.2519,+00.1655,+00.3423,-00.516,-01.205,-10.312,-00.010715,+00.006580,-00.014964*6E\r\n'"
1678087506.3482533,0,1678087506,325336694,imu1_frame,0,0,0,,0.058852574071964786,-0.023818422713829918,0.030413059727289703,0.9975189737857388,"(0.0, 0.0, 0.0, 0.0, 0.0, 0.0, 0.0, 0.0, 0.0)",-0.003292,0.000402,-0.013194,"(0.0, 0.0, 0.0, 0.0, 0.0, 0.0, 0.0, 0.0, 0.0)",-0.533,-1.247,-10.246,"(0.0, 0.0, 0.0, 0.0, 0.0, 0.0, 0.0, 0.0, 0.0)",0,0,0,,0.2527,0.1619,0.3404,"(0.0, 0.0, 0.0, 0.0, 0.0, 0.0, 0.0, 0.0, 0.0)","b'$VNYMR,+003.322,-002.929,+006.668,+00.2527,+00.1619,+00.3404,-00.533,-01.247,-10.246,-00.003292,+00.000402,-00.013194*68\r\n'"
1678087506.354684,0,1678087506,350312709,imu1_frame,0,0,0,,0.05885678127470254,-0.023727016702614654,0.030329413932931943,0.9975234506651262,"(0.0, 0.0, 0.0, 0.0, 0.0, 0.0, 0.0, 0.0, 0.0)",0.005407,0.022846,0.006533,"(0.0, 0.0, 0.0, 0.0, 0.0, 0.0, 0.0, 0.0, 0.0)",-0.552,-1.171,-10.188,"(0.0, 0.0, 0.0, 0.0, 0.0, 0.0, 0.0, 0.0, 0.0)",0,0,0,,0.2545,0.1636,0.3395,"(0.0, 0.0, 0.0, 0.0, 0.0, 0.0, 0.0, 0.0, 0.0)","b'$VNYMR,+003.313,-002.918,+006.669,+00.2545,+00.1636,+00.3395,-00.552,-01.171,-10.188,+00.005407,+00.022846,+00.006533*62\r\n'"
1678087506.400168,0,1678087506,375334739,imu1_frame,0,0,0,,0.05883593437835731,-0.02369888428635905,0.030222536427139256,0.9975285930745633,"(0.0, 0.0, 0.0, 0.0, 0.0, 0.0, 0.0, 0.0, 0.0)",-0.003166,0.000494,-0.009316,"(0.0, 0.0, 0.0, 0.0, 0.0, 0.0, 0.0, 0.0, 0.0)",-0.511,-1.079,-10.195,"(0.0, 0.0, 0.0, 0.0, 0.0, 0.0, 0.0, 0.0, 0.0)",0,0,0,,0.2502,0.1664,0.3412,"(0.0, 0.0, 0.0, 0.0, 0.0, 0.0, 0.0, 0.0, 0.0)","b'$VNYMR,+003.301,-002.914,+006.667,+00.2502,+00.1664,+00.3412,-00.511,-01.079,-10.195,-00.003166,+00.000494,-00.009316*64\r\n'"
1678087506.4441636,0,1678087506,400302171,imu1_frame,0,0,0,,0.05886496850960207,-0.023526281338899172,0.03016981797810353,0.9975325617000653,"(0.0, 0.0, 0.0, 0.0, 0.0, 0.0, 0.0, 0.0, 0.0)",0.010629,0.012107,-0.006699,"(0.0, 0.0, 0.0, 0.0, 0.0, 0.0, 0.0, 0.0, 0.0)",-0.519,-1.062,-10.076,"(0.0, 0.0, 0.0, 0.0, 0.0, 0.0, 0.0, 0.0, 0.0)",0,0,0,,0.2527,0.1619,0.3424,"(0.0, 0.0, 0.0, 0.0, 0.0, 0.0, 0.0, 0.0, 0.0)","b'$VNYMR,+003.296,-002.894,+006.671,+00.2527,+00.1619,+00.3424,-00.519,-01.062,-10.076,+00.010629,+00.012107,-00.006699*6A\r\n'"
1678087506.4442155,0,1678087506,425471544,imu1_frame,0,0,0,,0.058830860969534264,-0.02355345204807839,0.03017049893592226,0.9975339120491892,"(0.0, 0.0, 0.0, 0.0, 0.0, 0.0, 0.0, 0.0, 0.0)",-0.008705,-0.01695,-0.003896,"(0.0, 0.0, 0.0, 0.0, 0.0, 0.0, 0.0, 0.0, 0.0)",-0.523,-1.054,-10.072,"(0.0, 0.0, 0.0, 0.0, 0.0, 0.0, 0.0, 0.0, 0.0)",0,0,0,,0.2502,0.1682,0.3392,"(0.0, 0.0, 0.0, 0.0, 0.0, 0.0, 0.0, 0.0, 0.0)","b'$VNYMR,+003.296,-002.897,+006.667,+00.2502,+00.1682,+00.3392,-00.523,-01.054,-10.072,-00.008705,-00.016950,-00.003896*65\r\n'"
1678087506.4881501,0,1678087506,450287342,imu1_frame,0,0,0,,0.05873481430311361,-0.023703066760798173,0.030351130990318127,0.9975305484357461,"(0.0, 0.0, 0.0, 0.0, 0.0, 0.0, 0.0, 0.0, 0.0)",-0.00412,-0.006982,0.02422,"(0.0, 0.0, 0.0, 0.0, 0.0, 0.0, 0.0, 0.0, 0.0)",-0.533,-1.139,-10.19,"(0.0, 0.0, 0.0, 0.0, 0.0, 0.0, 0.0, 0.0, 0.0)",0,0,0,,0.2501,0.1628,0.3422,"(0.0, 0.0, 0.0, 0.0, 0.0, 0.0, 0.0, 0.0, 0.0)","b'$VNYMR,+003.316,-002.915,+006.655,+00.2501,+00.1628,+00.3422,-00.533,-01.139,-10.190,-00.004120,-00.006982,+00.024220*68\r\n'"
1678087506.4881911,0,1678087506,475328922,imu1_frame,0,0,0,,0.05859535957629601,-0.023872483292048018,0.03051427462398979,0.9975297326003709,"(0.0, 0.0, 0.0, 0.0, 0.0, 0.0, 0.0, 0.0, 0.0)",-0.007718,-0.010577,0.014083,"(0.0, 0.0, 0.0, 0.0, 0.0, 0.0, 0.0, 0.0, 0.0)",-0.51,-1.082,-10.268,"(0.0, 0.0, 0.0, 0.0, 0.0, 0.0, 0.0, 0.0, 0.0)",0,0,0,,0.2519,0.1673,0.3403,"(0.0, 0.0, 0.0, 0.0, 0.0, 0.0, 0.0, 0.0, 0.0)","b'$VNYMR,+003.334,-002.935,+006.638,+00.2519,+00.1673,+00.3403,-00.510,-01.082,-10.268,-00.007718,-00.010577,+00.014083*66\r\n'"
1678087506.5321414,0,1678087506,500370502,imu1_frame,0,0,0,,0.05845165776312086,-0.02403150220717184,0.03085996195767844,0.9975237106727741,"(0.0, 0.0, 0.0, 0.0, 0.0, 0.0, 0.0, 0.0, 0.0)",-0.010543,-0.005955,0.023194,"(0.0, 0.0, 0.0, 0.0, 0.0, 0.0, 0.0, 0.0, 0.0)",-0.58,-1.294,-10.277,"(0.0, 0.0, 0.0, 0.0, 0.0, 0.0, 0.0, 0.0, 0.0)",0,0,0,,0.2519,0.1637,0.3403,"(0.0, 0.0, 0.0, 0.0, 0.0, 0.0, 0.0, 0.0, 0.0)","b'$VNYMR,+003.373,-002.955,+006.620,+00.2519,+00.1637,+00.3403,-00.580,-01.294,-10.277,-00.010543,-00.005955,+00.023194*69\r\n'"
1678087506.5321732,0,1678087506,525270462,imu1_frame,0,0,0,,0.058403411502764506,-0.024023434675987367,0.03102409940577392,0.9975216395483698,"(0.0, 0.0, 0.0, 0.0, 0.0, 0.0, 0.0, 0.0, 0.0)",0.002098,0.003529,0.016257,"(0.0, 0.0, 0.0, 0.0, 0.0, 0.0, 0.0, 0.0, 0.0)",-0.507,-1.108,-10.218,"(0.0, 0.0, 0.0, 0.0, 0.0, 0.0, 0.0, 0.0, 0.0)",0,0,0,,0.2527,0.1609,0.3365,"(0.0, 0.0, 0.0, 0.0, 0.0, 0.0, 0.0, 0.0, 0.0)","b'$VNYMR,+003.392,-002.955,+006.614,+00.2527,+00.1609,+00.3365,-00.507,-01.108,-10.218,+00.002098,+00.003529,+00.016257*6D\r\n'"
1678087506.576206,0,1678087506,550287961,imu1_frame,0,0,0,,0.05826954355519539,-0.024005331595036764,0.03125528625582019,0.997522687175559,"(0.0, 0.0, 0.0, 0.0, 0.0, 0.0, 0.0, 0.0, 0.0)",-0.016871,0.006096,0.022382,"(0.0, 0.0, 0.0, 0.0, 0.0, 0.0, 0.0, 0.0, 0.0)",-0.497,-1.027,-10.224,"(0.0, 0.0, 0.0, 0.0, 0.0, 0.0, 0.0, 0.0, 0.0)",0,0,0,,0.251,0.1619,0.3403,"(0.0, 0.0, 0.0, 0.0, 0.0, 0.0, 0.0, 0.0, 0.0)","b'$VNYMR,+003.419,-002.954,+006.598,+00.2510,+00.1619,+00.3403,-00.497,-01.027,-10.224,-00.016871,+00.006096,+00.022382*60\r\n'"
1678087506.5803173,0,1678087506,575306892,imu1_frame,0,0,0,,0.057911101764565806,-0.023915691949976697,0.03163379149927012,0.997533782488768,"(0.0, 0.0, 0.0, 0.0, 0.0, 0.0, 0.0, 0.0, 0.0)",-0.029003,0.010968,0.028681,"(0.0, 0.0, 0.0, 0.0, 0.0, 0.0, 0.0, 0.0, 0.0)",-0.523,-1.118,-10.074,"(0.0, 0.0, 0.0, 0.0, 0.0, 0.0, 0.0, 0.0, 0.0)",0,0,0,,0.251,0.1628,0.3413,"(0.0, 0.0, 0.0, 0.0, 0.0, 0.0, 0.0, 0.0, 0.0)","b'$VNYMR,+003.464,-002.945,+006.556,+00.2510,+00.1628,+00.3413,-00.523,-01.118,-10.074,-00.029003,+00.010968,+00.028681*6D\r\n'"
1678087506.6242561,0,1678087506,600304603,imu1_frame,0,0,0,,0.0576069688678741,-0.023875382393737564,0.032042660375009364,0.9975393080823935,"(0.0, 0.0, 0.0, 0.0, 0.0, 0.0, 0.0, 0.0, 0.0)",-0.02971,-0.004007,0.035791,"(0.0, 0.0, 0.0, 0.0, 0.0, 0.0, 0.0, 0.0, 0.0)",-0.514,-1.138,-9.957,"(0.0, 0.0, 0.0, 0.0, 0.0, 0.0, 0.0, 0.0, 0.0)",0,0,0,,0.251,0.1646,0.3442,"(0.0, 0.0, 0.0, 0.0, 0.0, 0.0, 0.0, 0.0, 0.0)","b'$VNYMR,+003.512,-002.942,+006.520,+00.2510,+00.1646,+00.3442,-00.514,-01.138,-09.957,-00.029710,-00.004007,+00.035791*6B\r\n'"
1678087506.6681852,0,1678087506,625307083,imu1_frame,0,0,0,,0.057224732020809466,-0.024012497770274917,0.03260765411614454,0.997539708928432,"(0.0, 0.0, 0.0, 0.0, 0.0, 0.0, 0.0, 0.0, 0.0)",-0.022855,-0.001343,0.068132,"(0.0, 0.0, 0.0, 0.0, 0.0, 0.0, 0.0, 0.0, 0.0)",-0.51,-1.109,-10.191,"(0.0, 0.0, 0.0, 0.0, 0.0, 0.0, 0.0, 0.0, 0.0)",0,0,0,,0.2501,0.1628,0.3422,"(0.0, 0.0, 0.0, 0.0, 0.0, 0.0, 0.0, 0.0, 0.0)","b'$VNYMR,+003.577,-002.960,+006.474,+00.2501,+00.1628,+00.3422,-00.510,-01.109,-10.191,-00.022855,-00.001343,+00.068132*6E\r\n'"
1678087506.6682255,0,1678087506,650205850,imu1_frame,0,0,0,,0.05714818331599569,-0.02413792903268997,0.03321472138823435,0.9975210412862457,"(0.0, 0.0, 0.0, 0.0, 0.0, 0.0, 0.0, 0.0, 0.0)",0.0049,-0.00258,0.019431,"(0.0, 0.0, 0.0, 0.0, 0.0, 0.0, 0.0, 0.0, 0.0)",-0.545,-1.404,-10.347,"(0.0, 0.0, 0.0, 0.0, 0.0, 0.0, 0.0, 0.0, 0.0)",0,0,0,,0.2527,0.1619,0.3414,"(0.0, 0.0, 0.0, 0.0, 0.0, 0.0, 0.0, 0.0, 0.0)","b'$VNYMR,+003.646,-002.978,+006.463,+00.2527,+00.1619,+00.3414,-00.545,-01.404,-10.347,+00.004900,-00.002580,+00.019431*6B\r\n'"
1678087506.71255,0,1678087506,675190210,imu1_frame,0,0,0,,0.05731077184782285,-0.0240159441322126,0.03357877597559657,0.9975024690002656,"(0.0, 0.0, 0.0, 0.0, 0.0, 0.0, 0.0, 0.0, 0.0)",0.01554,0.015992,0.030728,"(0.0, 0.0, 0.0, 0.0, 0.0, 0.0, 0.0, 0.0, 0.0)",-0.51,-1.36,-10.165,"(0.0, 0.0, 0.0, 0.0, 0.0, 0.0, 0.0, 0.0, 0.0)",0,0,0,,0.251,0.1628,0.3432,"(0.0, 0.0, 0.0, 0.0, 0.0, 0.0, 0.0, 0.0, 0.0)","b'$VNYMR,+003.688,-002.967,+006.481,+00.2510,+00.1628,+00.3432,-00.510,-01.360,-10.165,+00.015540,+00.015992,+00.030728*69\r\n'"
1678087506.712595,0,1678087506,700238704,imu1_frame,0,0,0,,0.05757598516976932,-0.023978687957704286,0.03377558970388028,0.9974814474443686,"(0.0, 0.0, 0.0, 0.0, 0.0, 0.0, 0.0, 0.0, 0.0)",0.016024,-0.000528,0.027507,"(0.0, 0.0, 0.0, 0.0, 0.0, 0.0, 0.0, 0.0, 0.0)",-0.444,-1.053,-10.055,"(0.0, 0.0, 0.0, 0.0, 0.0, 0.0, 0.0, 0.0, 0.0)",0,0,0,,0.2545,0.1646,0.3434,"(0.0, 0.0, 0.0, 0.0, 0.0, 0.0, 0.0, 0.0, 0.0)","b'$VNYMR,+003.710,-002.965,+006.511,+00.2545,+00.1646,+00.3434,-00.444,-01.053,-10.055,+00.016024,-00.000528,+00.027507*6E\r\n'"
1678087506.760287,0,1678087506,725426912,imu1_frame,0,0,0,,0.05762774765267913,-0.02405849839595569,0.03433986306866768,0.9974572698415888,"(0.0, 0.0, 0.0, 0.0, 0.0, 0.0, 0.0, 0.0, 0.0)",-0.004019,-0.006862,0.04296,"(0.0, 0.0, 0.0, 0.0, 0.0, 0.0, 0.0, 0.0, 0.0)",-0.56,-1.288,-10.062,"(0.0, 0.0, 0.0, 0.0, 0.0, 0.0, 0.0, 0.0, 0.0)",0,0,0,,0.2527,0.1601,0.3443,"(0.0, 0.0, 0.0, 0.0, 0.0, 0.0, 0.0, 0.0, 0.0)","b'$VNYMR,+003.774,-002.978,+006.515,+00.2527,+00.1601,+00.3443,-00.560,-01.288,-10.062,-00.004019,-00.006862,+00.042960*64\r\n'"
1678087506.7603135,0,1678087506,750287055,imu1_frame,0,0,0,,0.05760229662071459,-0.024205836808248206,0.03453059370519449,0.99744859064856,"(0.0, 0.0, 0.0, 0.0, 0.0, 0.0, 0.0, 0.0, 0.0)",0.00271,-0.003582,0.007084,"(0.0, 0.0, 0.0, 0.0, 0.0, 0.0, 0.0, 0.0, 0.0)",-0.49,-1.21,-10.408,"(0.0, 0.0, 0.0, 0.0, 0.0, 0.0, 0.0, 0.0, 0.0)",0,0,0,,0.251,0.161,0.3442,"(0.0, 0.0, 0.0, 0.0, 0.0, 0.0, 0.0, 0.0, 0.0)","b'$VNYMR,+003.795,-002.996,+006.511,+00.2510,+00.1610,+00.3442,-00.490,-01.210,-10.408,+00.002710,-00.003582,+00.007084*67\r\n'"
1678087506.8081524,0,1678087506,775143623,imu1_frame,0,0,0,,0.0576601211616677,-0.024031386266801926,0.03495007586622521,0.9974348575714922,"(0.0, 0.0, 0.0, 0.0, 0.0, 0.0, 0.0, 0.0, 0.0)",0.002166,0.010331,0.044456,"(0.0, 0.0, 0.0, 0.0, 0.0, 0.0, 0.0, 0.0, 0.0)",-0.511,-1.261,-10.192,"(0.0, 0.0, 0.0, 0.0, 0.0, 0.0, 0.0, 0.0, 0.0)",0,0,0,,0.2518,0.16,0.3355,"(0.0, 0.0, 0.0, 0.0, 0.0, 0.0, 0.0, 0.0, 0.0)","b'$VNYMR,+003.844,-002.979,+006.517,+00.2518,+00.1600,+00.3355,-00.511,-01.261,-10.192,+00.002166,+00.010331,+00.044456*62\r\n'"
1678087506.80817,0,1678087506,800217866,imu1_frame,0,0,0,,0.05766451923514193,-0.023992691004972592,0.03516621774423805,0.9974279378126948,"(0.0, 0.0, 0.0, 0.0, 0.0, 0.0, 0.0, 0.0, 0.0)",0.002658,0.00844,0.014388,"(0.0, 0.0, 0.0, 0.0, 0.0, 0.0, 0.0, 0.0, 0.0)",-0.47,-1.19,-10.297,"(0.0, 0.0, 0.0, 0.0, 0.0, 0.0, 0.0, 0.0, 0.0)",0,0,0,,0.2519,0.1592,0.3424,"(0.0, 0.0, 0.0, 0.0, 0.0, 0.0, 0.0, 0.0, 0.0)","b'$VNYMR,+003.869,-002.976,+006.517,+00.2519,+00.1592,+00.3424,-00.470,-01.190,-10.297,+00.002658,+00.008440,+00.014388*64\r\n'"
1678087506.852206,0,1678087506,825424671,imu1_frame,0,0,0,,0.05773403937585039,-0.02386850550053621,0.035309512170853825,0.9974218332745554,"(0.0, 0.0, 0.0, 0.0, 0.0, 0.0, 0.0, 0.0, 0.0)",0.002504,0.010971,-0.001329,"(0.0, 0.0, 0.0, 0.0, 0.0, 0.0, 0.0, 0.0, 0.0)",-0.512,-1.26,-10.258,"(0.0, 0.0, 0.0, 0.0, 0.0, 0.0, 0.0, 0.0, 0.0)",0,0,0,,0.2545,0.1627,0.3424,"(0.0, 0.0, 0.0, 0.0, 0.0, 0.0, 0.0, 0.0, 0.0)","b'$VNYMR,+003.886,-002.963,+006.525,+00.2545,+00.1627,+00.3424,-00.512,-01.260,-10.258,+00.002504,+00.010971,-00.001329*6B\r\n'"
1678087506.8547397,0,1678087506,850354433,imu1_frame,0,0,0,,0.05768635620855827,-0.023748678824150157,0.03529293183216979,0.9974280392710928,"(0.0, 0.0, 0.0, 0.0, 0.0, 0.0, 0.0, 0.0, 0.0)",-0.003556,0.000842,0.000753,"(0.0, 0.0, 0.0, 0.0, 0.0, 0.0, 0.0, 0.0, 0.0)",-0.488,-1.152,-10.069,"(0.0, 0.0, 0.0, 0.0, 0.0, 0.0, 0.0, 0.0, 0.0)",0,0,0,,0.2545,0.16,0.3434,"(0.0, 0.0, 0.0, 0.0, 0.0, 0.0, 0.0, 0.0, 0.0)","b'$VNYMR,+003.885,-002.949,+006.520,+00.2545,+00.1600,+00.3434,-00.488,-01.152,-10.069,-00.003556,+00.000842,+00.000753*6F\r\n'"
1678087506.8961897,0,1678087506,875199556,imu1_frame,0,0,0,,0.057669321870635275,-0.023795336476725302,0.03525143655679377,0.9974293797044596,"(0.0, 0.0, 0.0, 0.0, 0.0, 0.0, 0.0, 0.0, 0.0)",0.00491,-0.003114,-0.008879,"(0.0, 0.0, 0.0, 0.0, 0.0, 0.0, 0.0, 0.0, 0.0)",-0.456,-1.131,-10.249,"(0.0, 0.0, 0.0, 0.0, 0.0, 0.0, 0.0, 0.0, 0.0)",0,0,0,,0.2545,0.1627,0.3415,"(0.0, 0.0, 0.0, 0.0, 0.0, 0.0, 0.0, 0.0, 0.0)","b'$VNYMR,+003.880,-002.954,+006.518,+00.2545,+00.1627,+00.3415,-00.456,-01.131,-10.249,+00.004910,-00.003114,-00.008879*64\r\n'"
1678087506.9442518,0,1678087506,900121450,imu1_frame,0,0,0,,0.05763290320704566,-0.02378167150593948,0.035206109204545824,0.9974334115333157,"(0.0, 0.0, 0.0, 0.0, 0.0, 0.0, 0.0, 0.0, 0.0)",-0.00378,0.004022,-0.007993,"(0.0, 0.0, 0.0, 0.0, 0.0, 0.0, 0.0, 0.0, 0.0)",-0.507,-1.231,-10.304,"(0.0, 0.0, 0.0, 0.0, 0.0, 0.0, 0.0, 0.0, 0.0)",0,0,0,,0.2519,0.161,0.3462,"(0.0, 0.0, 0.0, 0.0, 0.0, 0.0, 0.0, 0.0, 0.0)","b'$VNYMR,+003.875,-002.952,+006.514,+00.2519,+00.1610,+00.3462,-00.507,-01.231,-10.304,-00.003780,+00.004022,-00.007993*6E\r\n'"
1678087506.9442792,0,1678087506,925143957,imu1_frame,0,0,0,,0.05764011022257075,-0.023693195808847364,0.03491342684777747,0.9974453883755433,"(0.0, 0.0, 0.0, 0.0, 0.0, 0.0, 0.0, 0.0, 0.0)",-0.0008,0.008961,-0.029684,"(0.0, 0.0, 0.0, 0.0, 0.0, 0.0, 0.0, 0.0, 0.0)",-0.522,-1.128,-10.263,"(0.0, 0.0, 0.0, 0.0, 0.0, 0.0, 0.0, 0.0, 0.0)",0,0,0,,0.2527,0.1583,0.3424,"(0.0, 0.0, 0.0, 0.0, 0.0, 0.0, 0.0, 0.0, 0.0)","b'$VNYMR,+003.842,-002.940,+006.516,+00.2527,+00.1583,+00.3424,-00.522,-01.128,-10.263,-00.000800,+00.008961,-00.029684*62\r\n'"
1678087506.988232,0,1678087506,950195789,imu1_frame,0,0,0,,0.05748488673438483,-0.02365968857059679,0.03467197023584281,0.997463563953011,"(0.0, 0.0, 0.0, 0.0, 0.0, 0.0, 0.0, 0.0, 0.0)",-0.021336,-0.003215,-0.002201,"(0.0, 0.0, 0.0, 0.0, 0.0, 0.0, 0.0, 0.0, 0.0)",-0.459,-0.885,-10.201,"(0.0, 0.0, 0.0, 0.0, 0.0, 0.0, 0.0, 0.0, 0.0)",0,0,0,,0.2519,0.1619,0.3443,"(0.0, 0.0, 0.0, 0.0, 0.0, 0.0, 0.0, 0.0, 0.0)","b'$VNYMR,+003.815,-002.934,+006.499,+00.2519,+00.1619,+00.3443,-00.459,-00.885,-10.201,-00.021336,-00.003215,-00.002201*67\r\n'"
1678087506.9882627,0,1678087506,975270032,imu1_frame,0,0,0,,0.05718709942696897,-0.02363490171735423,0.03497714024463672,0.9974706144745558,"(0.0, 0.0, 0.0, 0.0, 0.0, 0.0, 0.0, 0.0, 0.0)",-0.018427,0.004487,0.03028,"(0.0, 0.0, 0.0, 0.0, 0.0, 0.0, 0.0, 0.0, 0.0)",-0.562,-1.174,-10.18,"(0.0, 0.0, 0.0, 0.0, 0.0, 0.0, 0.0, 0.0, 0.0)",0,0,0,,0.2536,0.1592,0.3463,"(0.0, 0.0, 0.0, 0.0, 0.0, 0.0, 0.0, 0.0, 0.0)","b'$VNYMR,+003.851,-002.932,+006.464,+00.2536,+00.1592,+00.3463,-00.562,-01.174,-10.180,-00.018427,+00.004487,+00.030280*66\r\n'"
1678087507.0321207,0,1678087507,351428,imu1_frame,0,0,0,,0.05710134825797038,-0.023616058375938394,0.03505245242665493,0.9974733296649007,"(0.0, 0.0, 0.0, 0.0, 0.0, 0.0, 0.0, 0.0, 0.0)",-0.000248,0.003069,0.00257,"(0.0, 0.0, 0.0, 0.0, 0.0, 0.0, 0.0, 0.0, 0.0)",-0.496,-1.083,-10.24,"(0.0, 0.0, 0.0, 0.0, 0.0, 0.0, 0.0, 0.0, 0.0)",0,0,0,,0.2519,0.1574,0.3443,"(0.0, 0.0, 0.0, 0.0, 0.0, 0.0, 0.0, 0.0, 0.0)","b'$VNYMR,+003.860,-002.930,+006.454,+00.2519,+00.1574,+00.3443,-00.496,-01.083,-10.240,-00.000248,+00.003069,+00.002570*62\r\n'"
1678087507.0321414,0,1678087507,25117397,imu1_frame,0,0,0,,0.05701809096263357,-0.023544247305660963,0.035290742851054976,0.9974713876552086,"(0.0, 0.0, 0.0, 0.0, 0.0, 0.0, 0.0, 0.0, 0.0)",-0.015568,0.000696,0.015931,"(0.0, 0.0, 0.0, 0.0, 0.0, 0.0, 0.0, 0.0, 0.0)",-0.54,-1.271,-10.118,"(0.0, 0.0, 0.0, 0.0, 0.0, 0.0, 0.0, 0.0, 0.0)",0,0,0,,0.2527,0.1592,0.3424,"(0.0, 0.0, 0.0, 0.0, 0.0, 0.0, 0.0, 0.0, 0.0)","b'$VNYMR,+003.888,-002.923,+006.444,+00.2527,+00.1592,+00.3424,-00.540,-01.271,-10.118,-00.015568,+00.000696,+00.015931*63\r\n'"
1678087507.0763445,0,1678087507,50323009,imu1_frame,0,0,0,,0.05682517404765128,-0.023507494579750845,0.035283817853315746,0.9974835083803295,"(0.0, 0.0, 0.0, 0.0, 0.0, 0.0, 0.0, 0.0, 0.0)",-0.010556,0.014273,0.002256,"(0.0, 0.0, 0.0, 0.0, 0.0, 0.0, 0.0, 0.0, 0.0)",-0.51,-1.16,-10.175,"(0.0, 0.0, 0.0, 0.0, 0.0, 0.0, 0.0, 0.0, 0.0)",0,0,0,,0.2527,0.1601,0.3414,"(0.0, 0.0, 0.0, 0.0, 0.0, 0.0, 0.0, 0.0, 0.0)","b'$VNYMR,+003.888,-002.918,+006.422,+00.2527,+00.1601,+00.3414,-00.510,-01.160,-10.175,-00.010556,+00.014273,+00.002256*62\r\n'"
1678087507.0804253,0,1678087507,75247049,imu1_frame,0,0,0,,0.056643351528345216,-0.023530382905516786,0.03529787731455354,0.9974928128387907,"(0.0, 0.0, 0.0, 0.0, 0.0, 0.0, 0.0, 0.0, 0.0)",-0.020385,6.9e-05,-0.012964,"(0.0, 0.0, 0.0, 0.0, 0.0, 0.0, 0.0, 0.0, 0.0)",-0.577,-1.288,-10.219,"(0.0, 0.0, 0.0, 0.0, 0.0, 0.0, 0.0, 0.0, 0.0)",0,0,0,,0.2527,0.1573,0.3405,"(0.0, 0.0, 0.0, 0.0, 0.0, 0.0, 0.0, 0.0, 0.0)","b'$VNYMR,+003.890,-002.920,+006.401,+00.2527,+00.1573,+00.3405,-00.577,-01.288,-10.219,-00.020385,+00.000069,-00.012964*60\r\n'"
1678087507.1241388,0,1678087507,100068330,imu1_frame,0,0,0,,0.05645639120597744,-0.02349052919676523,0.03518624002415644,0.9975082954256651,"(0.0, 0.0, 0.0, 0.0, 0.0, 0.0, 0.0, 0.0, 0.0)",-0.006346,0.006284,0.008494,"(0.0, 0.0, 0.0, 0.0, 0.0, 0.0, 0.0, 0.0, 0.0)",-0.508,-1.088,-10.23,"(0.0, 0.0, 0.0, 0.0, 0.0, 0.0, 0.0, 0.0, 0.0)",0,0,0,,0.2527,0.1582,0.3414,"(0.0, 0.0, 0.0, 0.0, 0.0, 0.0, 0.0, 0.0, 0.0)","b'$VNYMR,+003.878,-002.914,+006.380,+00.2527,+00.1582,+00.3414,-00.508,-01.088,-10.230,-00.006346,+00.006284,+00.008494*63\r\n'"
1678087507.172189,0,1678087507,125184535,imu1_frame,0,0,0,,0.056421699024082596,-0.02348206691792238,0.03520235248563589,0.997509889069765,"(0.0, 0.0, 0.0, 0.0, 0.0, 0.0, 0.0, 0.0, 0.0)",-0.012497,-0.006649,-0.003725,"(0.0, 0.0, 0.0, 0.0, 0.0, 0.0, 0.0, 0.0, 0.0)",-0.515,-1.121,-10.08,"(0.0, 0.0, 0.0, 0.0, 0.0, 0.0, 0.0, 0.0, 0.0)",0,0,0,,0.2536,0.1591,0.3385,"(0.0, 0.0, 0.0, 0.0, 0.0, 0.0, 0.0, 0.0, 0.0)","b'$VNYMR,+003.880,-002.913,+006.376,+00.2536,+00.1591,+00.3385,-00.515,-01.121,-10.080,-00.012497,-00.006649,-00.003725*69\r\n'"
1678087507.1722362,0,1678087507,150116920,imu1_frame,0,0,0,,0.05638091674001006,-0.02348640459201318,0.03530626388074399,0.9975084203943742,"(0.0, 0.0, 0.0, 0.0, 0.0, 0.0, 0.0, 0.0, 0.0)",0.007676,-0.001634,0.010963,"(0.0, 0.0, 0.0, 0.0, 0.0, 0.0, 0.0, 0.0, 0.0)",-0.495,-1.169,-10.159,"(0.0, 0.0, 0.0, 0.0, 0.0, 0.0, 0.0, 0.0, 0.0)",0,0,0,,0.2527,0.1583,0.3444,"(0.0, 0.0, 0.0, 0.0, 0.0, 0.0, 0.0, 0.0, 0.0)","b'$VNYMR,+003.892,-002.914,+006.371,+00.2527,+00.1583,+00.3444,-00.495,-01.169,-10.159,+00.007676,-00.001634,+00.010963*69\r\n'"
1678087507.2161863,0,1678087507,175150394,imu1_frame,0,0,0,,0.05649471572779444,-0.023386961216948436,0.035452130758349056,0.9974991446435258,"(0.0, 0.0, 0.0, 0.0, 0.0, 0.0, 0.0, 0.0, 0.0)",0.009332,0.009651,-0.004781,"(0.0, 0.0, 0.0, 0.0, 0.0, 0.0, 0.0, 0.0, 0.0)",-0.556,-1.277,-10.047,"(0.0, 0.0, 0.0, 0.0, 0.0, 0.0, 0.0, 0.0, 0.0)",0,0,0,,0.2527,0.1583,0.3434,"(0.0, 0.0, 0.0, 0.0, 0.0, 0.0, 0.0, 0.0, 0.0)","b'$VNYMR,+003.909,-002.904,+006.384,+00.2527,+00.1583,+00.3434,-00.556,-01.277,-10.047,+00.009332,+00.009651,-00.004781*6D\r\n'"
1678087507.2162213,0,1678087507,200151920,imu1_frame,0,0,0,,0.05644174026414201,-0.02344696223826425,0.03534931286244326,0.9975043839492163,"(0.0, 0.0, 0.0, 0.0, 0.0, 0.0, 0.0, 0.0, 0.0)",-0.006148,-0.002949,-0.001748,"(0.0, 0.0, 0.0, 0.0, 0.0, 0.0, 0.0, 0.0, 0.0)",-0.518,-1.132,-10.193,"(0.0, 0.0, 0.0, 0.0, 0.0, 0.0, 0.0, 0.0, 0.0)",0,0,0,,0.2527,0.1592,0.3453,"(0.0, 0.0, 0.0, 0.0, 0.0, 0.0, 0.0, 0.0, 0.0)","b'$VNYMR,+003.897,-002.910,+006.378,+00.2527,+00.1592,+00.3453,-00.518,-01.132,-10.193,-00.006148,-00.002949,-00.001748*61\r\n'"
1678087507.2601366,0,1678087507,225160121,imu1_frame,0,0,0,,0.05626161858300607,-0.023522104288401523,0.03536623243348391,0.9975121906461728,"(0.0, 0.0, 0.0, 0.0, 0.0, 0.0, 0.0, 0.0, 0.0)",-0.021585,-0.011427,-0.00495,"(0.0, 0.0, 0.0, 0.0, 0.0, 0.0, 0.0, 0.0, 0.0)",-0.54,-1.262,-10.229,"(0.0, 0.0, 0.0, 0.0, 0.0, 0.0, 0.0, 0.0, 0.0)",0,0,0,,0.2527,0.1583,0.3424,"(0.0, 0.0, 0.0, 0.0, 0.0, 0.0, 0.0, 0.0, 0.0)","b'$VNYMR,+003.899,-002.918,+006.357,+00.2527,+00.1583,+00.3424,-00.540,-01.262,-10.229,-00.021585,-00.011427,-00.004950*66\r\n'"
1678087507.2601597,0,1678087507,249987363,imu1_frame,0,0,0,,0.05622521047574241,-0.023583424251532887,0.0352289853546424,0.9975176521738416,"(0.0, 0.0, 0.0, 0.0, 0.0, 0.0, 0.0, 0.0, 0.0)",0.001862,-0.004146,0.003212,"(0.0, 0.0, 0.0, 0.0, 0.0, 0.0, 0.0, 0.0, 0.0)",-0.481,-1.108,-10.268,"(0.0, 0.0, 0.0, 0.0, 0.0, 0.0, 0.0, 0.0, 0.0)",0,0,0,,0.251,0.1592,0.3462,"(0.0, 0.0, 0.0, 0.0, 0.0, 0.0, 0.0, 0.0, 0.0)","b'$VNYMR,+003.883,-002.924,+006.353,+00.2510,+00.1592,+00.3462,-00.481,-01.108,-10.268,+00.001862,-00.004146,+00.003212*6C\r\n'"
1678087507.3081617,0,1678087507,275073528,imu1_frame,0,0,0,,0.05626721581266319,-0.023501079713813763,0.035269255337655576,0.997515804037662,"(0.0, 0.0, 0.0, 0.0, 0.0, 0.0, 0.0, 0.0, 0.0)",0.004708,0.013909,-0.006443,"(0.0, 0.0, 0.0, 0.0, 0.0, 0.0, 0.0, 0.0, 0.0)",-0.554,-1.219,-10.214,"(0.0, 0.0, 0.0, 0.0, 0.0, 0.0, 0.0, 0.0, 0.0)",0,0,0,,0.2518,0.1565,0.3434,"(0.0, 0.0, 0.0, 0.0, 0.0, 0.0, 0.0, 0.0, 0.0)","b'$VNYMR,+003.888,-002.915,+006.358,+00.2518,+00.1565,+00.3434,-00.554,-01.219,-10.214,+00.004708,+00.013909,-00.006443*68\r\n'"
1678087507.3081932,0,1678087507,300231456,imu1_frame,0,0,0,,0.05619337243597806,-0.023354071315700355,0.03528564781580134,0.9975228394906414,"(0.0, 0.0, 0.0, 0.0, 0.0, 0.0, 0.0, 0.0, 0.0)",-0.010414,0.015704,0.008887,"(0.0, 0.0, 0.0, 0.0, 0.0, 0.0, 0.0, 0.0, 0.0)",-0.485,-1.082,-10.106,"(0.0, 0.0, 0.0, 0.0, 0.0, 0.0, 0.0, 0.0, 0.0)",0,0,0,,0.2536,0.1591,0.3395,"(0.0, 0.0, 0.0, 0.0, 0.0, 0.0, 0.0, 0.0, 0.0)","b'$VNYMR,+003.891,-002.898,+006.350,+00.2536,+00.1591,+00.3395,-00.485,-01.082,-10.106,-00.010414,+00.015704,+00.008887*6E\r\n'"
1678087507.3521366,0,1678087507,325200080,imu1_frame,0,0,0,,0.05600304700499618,-0.0232828896240422,0.03542536041613512,0.9975302549879367,"(0.0, 0.0, 0.0, 0.0, 0.0, 0.0, 0.0, 0.0, 0.0)",-0.017727,-0.00076,0.010511,"(0.0, 0.0, 0.0, 0.0, 0.0, 0.0, 0.0, 0.0, 0.0)",-0.489,-1.045,-10.017,"(0.0, 0.0, 0.0, 0.0, 0.0, 0.0, 0.0, 0.0, 0.0)",0,0,0,,0.2536,0.1637,0.3433,"(0.0, 0.0, 0.0, 0.0, 0.0, 0.0, 0.0, 0.0, 0.0)","b'$VNYMR,+003.908,-002.890,+006.328,+00.2536,+00.1637,+00.3433,-00.489,-01.045,-10.017,-00.017727,-00.000760,+00.010511*65\r\n'"
1678087507.3538907,0,1678087507,349990129,imu1_frame,0,0,0,,0.05561112344877452,-0.023342522490440824,0.03569787023043502,0.9975410726649602,"(0.0, 0.0, 0.0, 0.0, 0.0, 0.0, 0.0, 0.0, 0.0)",-0.039175,-0.002372,0.026786,"(0.0, 0.0, 0.0, 0.0, 0.0, 0.0, 0.0, 0.0, 0.0)",-0.535,-1.126,-10.229,"(0.0, 0.0, 0.0, 0.0, 0.0, 0.0, 0.0, 0.0, 0.0)",0,0,0,,0.2545,0.1564,0.3445,"(0.0, 0.0, 0.0, 0.0, 0.0, 0.0, 0.0, 0.0, 0.0)","b'$VNYMR,+003.940,-002.897,+006.282,+00.2545,+00.1564,+00.3445,-00.535,-01.126,-10.229,-00.039175,-00.002372,+00.026786*63\r\n'"
1678087507.3961568,0,1678087507,375009536,imu1_frame,0,0,0,,0.055137801533679524,-0.0233655185111633,0.03589652365619236,0.9975596799069905,"(0.0, 0.0, 0.0, 0.0, 0.0, 0.0, 0.0, 0.0, 0.0)",-0.038118,0.003618,-0.004224,"(0.0, 0.0, 0.0, 0.0, 0.0, 0.0, 0.0, 0.0, 0.0)",-0.542,-1.365,-10.376,"(0.0, 0.0, 0.0, 0.0, 0.0, 0.0, 0.0, 0.0, 0.0)",0,0,0,,0.2536,0.1583,0.3454,"(0.0, 0.0, 0.0, 0.0, 0.0, 0.0, 0.0, 0.0, 0.0)","b'$VNYMR,+003.964,-002.899,+006.227,+00.2536,+00.1583,+00.3454,-00.542,-01.365,-10.376,-00.038118,+00.003618,-00.004224*68\r\n'"
1678087507.4401865,0,1678087507,399979114,imu1_frame,0,0,0,,0.05474282096034272,-0.02314459836461279,0.03570918928930078,0.9975933063729655,"(0.0, 0.0, 0.0, 0.0, 0.0, 0.0, 0.0, 0.0, 0.0)",-0.036542,0.015948,-0.023481,"(0.0, 0.0, 0.0, 0.0, 0.0, 0.0, 0.0, 0.0, 0.0)",-0.481,-1.237,-10.3,"(0.0, 0.0, 0.0, 0.0, 0.0, 0.0, 0.0, 0.0, 0.0)",0,0,0,,0.251,0.1574,0.3433,"(0.0, 0.0, 0.0, 0.0, 0.0, 0.0, 0.0, 0.0, 0.0)","b'$VNYMR,+003.945,-002.871,+006.183,+00.2510,+00.1574,+00.3433,-00.481,-01.237,-10.300,-00.036542,+00.015948,-00.023481*60\r\n'"
1678087507.4402175,0,1678087507,425130605,imu1_frame,0,0,0,,0.05412872749864976,-0.02287856892923764,0.035522983229692474,0.997639599056488,"(0.0, 0.0, 0.0, 0.0, 0.0, 0.0, 0.0, 0.0, 0.0)",-0.063215,0.01893,0.004101,"(0.0, 0.0, 0.0, 0.0, 0.0, 0.0, 0.0, 0.0, 0.0)",-0.442,-0.92,-10.031,"(0.0, 0.0, 0.0, 0.0, 0.0, 0.0, 0.0, 0.0, 0.0)",0,0,0,,0.2518,0.1573,0.3395,"(0.0, 0.0, 0.0, 0.0, 0.0, 0.0, 0.0, 0.0, 0.0)","b'$VNYMR,+003.927,-002.837,+006.114,+00.2518,+00.1573,+00.3395,-00.442,-00.920,-10.031,-00.063215,+00.018930,+00.004101*67\r\n'"
1678087507.48428,0,1678087507,449940919,imu1_frame,0,0,0,,0.053242933598483484,-0.022867452030266536,0.035648814844668635,0.9976830316586734,"(0.0, 0.0, 0.0, 0.0, 0.0, 0.0, 0.0, 0.0, 0.0)",-0.067156,0.005498,0.012931,"(0.0, 0.0, 0.0, 0.0, 0.0, 0.0, 0.0, 0.0, 0.0)",-0.46,-1.039,-10.176,"(0.0, 0.0, 0.0, 0.0, 0.0, 0.0, 0.0, 0.0, 0.0)",0,0,0,,0.2536,0.1546,0.3435,"(0.0, 0.0, 0.0, 0.0, 0.0, 0.0, 0.0, 0.0, 0.0)","b'$VNYMR,+003.944,-002.833,+006.012,+00.2536,+00.1546,+00.3435,-00.460,-01.039,-10.176,-00.067156,+00.005498,+00.012931*6B\r\n'"
1678087507.484308,0,1678087507,474939823,imu1_frame,0,0,0,,0.05198218827149966,-0.022637753855788652,0.03569351505502602,0.9977531544354484,"(0.0, 0.0, 0.0, 0.0, 0.0, 0.0, 0.0, 0.0, 0.0)",-0.175502,0.029384,-0.02372,"(0.0, 0.0, 0.0, 0.0, 0.0, 0.0, 0.0, 0.0, 0.0)",-0.493,-1.251,-10.323,"(0.0, 0.0, 0.0, 0.0, 0.0, 0.0, 0.0, 0.0, 0.0)",0,0,0,,0.2519,0.1574,0.3453,"(0.0, 0.0, 0.0, 0.0, 0.0, 0.0, 0.0, 0.0, 0.0)","b'$VNYMR,+003.954,-002.802,+005.868,+00.2519,+00.1574,+00.3453,-00.493,-01.251,-10.323,-00.175502,+00.029384,-00.023720*69\r\n'"
1678087507.5321462,0,1678087507,500065565,imu1_frame,0,0,0,,0.05041966224427463,-0.022514602896294186,0.03609434985265755,0.9978217016202392,"(0.0, 0.0, 0.0, 0.0, 0.0, 0.0, 0.0, 0.0, 0.0)",-0.10381,0.014786,0.034038,"(0.0, 0.0, 0.0, 0.0, 0.0, 0.0, 0.0, 0.0, 0.0)",-0.509,-1.068,-10.424,"(0.0, 0.0, 0.0, 0.0, 0.0, 0.0, 0.0, 0.0, 0.0)",0,0,0,,0.2527,0.1547,0.3454,"(0.0, 0.0, 0.0, 0.0, 0.0, 0.0, 0.0, 0.0, 0.0)","b'$VNYMR,+004.005,-002.784,+005.688,+00.2527,+00.1547,+00.3454,-00.509,-01.068,-10.424,-00.103810,+00.014786,+00.034038*6B\r\n'"
1678087507.5321746,0,1678087507,525203227,imu1_frame,0,0,0,,0.04831825432845147,-0.022110149998594224,0.03622543463869542,0.997929960193063,"(0.0, 0.0, 0.0, 0.0, 0.0, 0.0, 0.0, 0.0, 0.0)",-0.22079,0.033841,-0.017408,"(0.0, 0.0, 0.0, 0.0, 0.0, 0.0, 0.0, 0.0, 0.0)",0.01,-1.282,-10.205,"(0.0, 0.0, 0.0, 0.0, 0.0, 0.0, 0.0, 0.0, 0.0)",0,0,0,,0.251,0.1529,0.3463,"(0.0, 0.0, 0.0, 0.0, 0.0, 0.0, 0.0, 0.0, 0.0)","b'$VNYMR,+004.028,-002.730,+005.448,+00.2510,+00.1529,+00.3463,+00.010,-01.282,-10.205,-00.220790,+00.033841,-00.017408*61\r\n'"
1678087507.5801554,0,1678087507,550094127,imu1_frame,0,0,0,,0.04596437220785999,-0.021498591156185593,0.035933448707224785,0.9980650651785391,"(0.0, 0.0, 0.0, 0.0, 0.0, 0.0, 0.0, 0.0, 0.0)",-0.212393,0.0544,0.015966,"(0.0, 0.0, 0.0, 0.0, 0.0, 0.0, 0.0, 0.0, 0.0)",-0.343,-0.93,-10.226,"(0.0, 0.0, 0.0, 0.0, 0.0, 0.0, 0.0, 0.0, 0.0)",0,0,0,,0.2536,0.152,0.3503,"(0.0, 0.0, 0.0, 0.0, 0.0, 0.0, 0.0, 0.0, 0.0)","b'$VNYMR,+004.004,-002.649,+005.181,+00.2536,+00.1520,+00.3503,-00.343,-00.930,-10.226,-00.212393,+00.054400,+00.015966*64\r\n'"
1678087507.5801795,0,1678087507,575108528,imu1_frame,0,0,0,,0.043341681206472284,-0.020836716620292482,0.035784731071140136,0.9982017746592361,"(0.0, 0.0, 0.0, 0.0, 0.0, 0.0, 0.0, 0.0, 0.0)",-0.106821,0.018733,-0.07755,"(0.0, 0.0, 0.0, 0.0, 0.0, 0.0, 0.0, 0.0, 0.0)",-0.637,-1.038,-10.2,"(0.0, 0.0, 0.0, 0.0, 0.0, 0.0, 0.0, 0.0, 0.0)",0,0,0,,0.2518,0.1538,0.3483,"(0.0, 0.0, 0.0, 0.0, 0.0, 0.0, 0.0, 0.0, 0.0)","b'$VNYMR,+003.997,-002.562,+004.883,+00.2518,+00.1538,+00.3483,-00.637,-01.038,-10.200,-00.106821,+00.018733,-00.077550*6A\r\n'"
1678087507.6242373,0,1678087507,599946737,imu1_frame,0,0,0,,0.04102592235039429,-0.020522987936193577,0.03560752433831041,0.9983124685547942,"(0.0, 0.0, 0.0, 0.0, 0.0, 0.0, 0.0, 0.0, 0.0)",-0.12762,0.046038,-0.013265,"(0.0, 0.0, 0.0, 0.0, 0.0, 0.0, 0.0, 0.0, 0.0)",-0.384,-0.642,-10.259,"(0.0, 0.0, 0.0, 0.0, 0.0, 0.0, 0.0, 0.0, 0.0)",0,0,0,,0.2492,0.1466,0.3483,"(0.0, 0.0, 0.0, 0.0, 0.0, 0.0, 0.0, 0.0, 0.0)","b'$VNYMR,+003.984,-002.516,+004.619,+00.2492,+00.1466,+00.3483,-00.384,-00.642,-10.259,-00.127620,+00.046038,-00.013265*6C\r\n'"
1678087507.6290772,0,1678087507,625046968,imu1_frame,0,0,0,,0.03947157093220604,-0.020410831972474876,0.03606640146269525,0.9983609606309067,"(0.0, 0.0, 0.0, 0.0, 0.0, 0.0, 0.0, 0.0, 0.0)",-0.110561,-0.011248,0.029091,"(0.0, 0.0, 0.0, 0.0, 0.0, 0.0, 0.0, 0.0, 0.0)",-0.453,-1.027,-9.958,"(0.0, 0.0, 0.0, 0.0, 0.0, 0.0, 0.0, 0.0, 0.0)",0,0,0,,0.2492,0.1475,0.3512,"(0.0, 0.0, 0.0, 0.0, 0.0, 0.0, 0.0, 0.0, 0.0)","b'$VNYMR,+004.041,-002.499,+004.440,+00.2492,+00.1475,+00.3512,-00.453,-01.027,-09.958,-00.110561,-00.011248,+00.029091*66\r\n'"
1678087507.6721318,0,1678087507,650084018,imu1_frame,0,0,0,,0.03766604476100459,-0.02053808320438276,0.03624092501891863,0.9984217803934994,"(0.0, 0.0, 0.0, 0.0, 0.0, 0.0, 0.0, 0.0, 0.0)",-0.208739,0.006331,0.027345,"(0.0, 0.0, 0.0, 0.0, 0.0, 0.0, 0.0, 0.0, 0.0)",-0.445,-0.858,-10.116,"(0.0, 0.0, 0.0, 0.0, 0.0, 0.0, 0.0, 0.0, 0.0)",0,0,0,,0.251,0.1502,0.3522,"(0.0, 0.0, 0.0, 0.0, 0.0, 0.0, 0.0, 0.0, 0.0)","b'$VNYMR,+004.065,-002.507,+004.232,+00.2510,+00.1502,+00.3522,-00.445,-00.858,-10.116,-00.208739,+00.006331,+00.027345*6E\r\n'"
1678087507.7161784,0,1678087507,674989223,imu1_frame,0,0,0,,0.035510531334597105,-0.020671888437627187,0.03635530907401386,0.9984938491021814,"(0.0, 0.0, 0.0, 0.0, 0.0, 0.0, 0.0, 0.0, 0.0)",-0.146592,0.007906,0.001731,"(0.0, 0.0, 0.0, 0.0, 0.0, 0.0, 0.0, 0.0, 0.0)",-0.451,-0.625,-10.219,"(0.0, 0.0, 0.0, 0.0, 0.0, 0.0, 0.0, 0.0, 0.0)",0,0,0,,0.2518,0.1493,0.3513,"(0.0, 0.0, 0.0, 0.0, 0.0, 0.0, 0.0, 0.0, 0.0)","b'$VNYMR,+004.083,-002.514,+003.984,+00.2518,+00.1493,+00.3513,-00.451,-00.625,-10.219,-00.146592,+00.007906,+00.001731*6D\r\n'"
1678087507.71622,0,1678087507,699915409,imu1_frame,0,0,0,,0.032298097043626364,-0.020793337222449065,0.036419539167312755,0.9985980608940489,"(0.0, 0.0, 0.0, 0.0, 0.0, 0.0, 0.0, 0.0, 0.0)",-0.213465,-0.004159,0.021286,"(0.0, 0.0, 0.0, 0.0, 0.0, 0.0, 0.0, 0.0, 0.0)",-0.404,-0.438,-10.285,"(0.0, 0.0, 0.0, 0.0, 0.0, 0.0, 0.0, 0.0, 0.0)",0,0,0,,0.2483,0.1448,0.3522,"(0.0, 0.0, 0.0, 0.0, 0.0, 0.0, 0.0, 0.0, 0.0)","b'$VNYMR,+004.098,-002.515,+003.615,+00.2483,+00.1448,+00.3522,-00.404,-00.438,-10.285,-00.213465,-00.004159,+00.021286*6B\r\n'"
1678087507.7601256,0,1678087507,724857091,imu1_frame,0,0,0,,0.028659161528208243,-0.020585027662932527,0.036665828802989325,0.9987044237885434,"(0.0, 0.0, 0.0, 0.0, 0.0, 0.0, 0.0, 0.0, 0.0)",-0.201677,0.019016,0.024635,"(0.0, 0.0, 0.0, 0.0, 0.0, 0.0, 0.0, 0.0, 0.0)",-0.437,-0.622,-10.012,"(0.0, 0.0, 0.0, 0.0, 0.0, 0.0, 0.0, 0.0, 0.0)",0,0,0,,0.2518,0.142,0.3485,"(0.0, 0.0, 0.0, 0.0, 0.0, 0.0, 0.0, 0.0, 0.0)","b'$VNYMR,+004.136,-002.477,+003.198,+00.2518,+00.1420,+00.3485,-00.437,-00.622,-10.012,-00.201677,+00.019016,+00.024635*66\r\n'"
1678087507.760158,0,1678087507,750029325,imu1_frame,0,0,0,,0.025522835856586122,-0.020897348219745177,0.03674506092937673,0.9987800990130495,"(0.0, 0.0, 0.0, 0.0, 0.0, 0.0, 0.0, 0.0, 0.0)",-0.311334,0.012054,0.057113,"(0.0, 0.0, 0.0, 0.0, 0.0, 0.0, 0.0, 0.0, 0.0)",-0.47,-0.719,-10.19,"(0.0, 0.0, 0.0, 0.0, 0.0, 0.0, 0.0, 0.0, 0.0)",0,0,0,,0.2501,0.1421,0.3513,"(0.0, 0.0, 0.0, 0.0, 0.0, 0.0, 0.0, 0.0, 0.0)","b'$VNYMR,+004.152,-002.500,+002.837,+00.2501,+00.1421,+00.3513,-00.470,-00.719,-10.190,-00.311334,+00.012054,+00.057113*66\r\n'"
1678087507.8041213,0,1678087507,775014638,imu1_frame,0,0,0,,0.02340385395355314,-0.020949431088517212,0.036299124804615446,0.9988472127886262,"(0.0, 0.0, 0.0, 0.0, 0.0, 0.0, 0.0, 0.0, 0.0)",-0.178615,0.022075,-0.005195,"(0.0, 0.0, 0.0, 0.0, 0.0, 0.0, 0.0, 0.0, 0.0)",-0.322,0.004,-10.09,"(0.0, 0.0, 0.0, 0.0, 0.0, 0.0, 0.0, 0.0, 0.0)",0,0,0,,0.2518,0.1384,0.3524,"(0.0, 0.0, 0.0, 0.0, 0.0, 0.0, 0.0, 0.0, 0.0)","b'$VNYMR,+004.106,-002.496,+002.595,+00.2518,+00.1384,+00.3524,-00.322,+00.004,-10.090,-00.178615,+00.022075,-00.005195*60\r\n'"
1678087507.8041496,0,1678087507,799817800,imu1_frame,0,0,0,,0.020030558140294284,-0.02136228609683501,0.036564523429449505,0.9989021298904525,"(0.0, 0.0, 0.0, 0.0, 0.0, 0.0, 0.0, 0.0, 0.0)",-0.19265,-0.025154,0.01435,"(0.0, 0.0, 0.0, 0.0, 0.0, 0.0, 0.0, 0.0, 0.0)",-0.46,-0.285,-10.331,"(0.0, 0.0, 0.0, 0.0, 0.0, 0.0, 0.0, 0.0, 0.0)",0,0,0,,0.2518,0.1357,0.3544,"(0.0, 0.0, 0.0, 0.0, 0.0, 0.0, 0.0, 0.0, 0.0)","b'$VNYMR,+004.144,-002.530,+002.206,+00.2518,+00.1357,+00.3544,-00.460,-00.285,-10.331,-00.192650,-00.025154,+00.014350*61\r\n'"
1678087507.8481662,0,1678087507,824959993,imu1_frame,0,0,0,,0.01635043077693746,-0.02137508033669384,0.03701551804204589,0.998952261511073,"(0.0, 0.0, 0.0, 0.0, 0.0, 0.0, 0.0, 0.0, 0.0)",-0.361019,-0.031472,0.112063,"(0.0, 0.0, 0.0, 0.0, 0.0, 0.0, 0.0, 0.0, 0.0)",-0.46,-0.325,-10.01,"(0.0, 0.0, 0.0, 0.0, 0.0, 0.0, 0.0, 0.0, 0.0)",0,0,0,,0.25,0.1339,0.3524,"(0.0, 0.0, 0.0, 0.0, 0.0, 0.0, 0.0, 0.0, 0.0)","b'$VNYMR,+004.205,-002.517,+001.783,+00.2500,+00.1339,+00.3524,-00.460,-00.325,-10.010,-00.361019,-00.031472,+00.112063*60\r\n'"
1678087507.8542027,0,1678087507,849973201,imu1_frame,0,0,0,,0.012220950843317252,-0.021695236032226537,0.03756466244377944,0.9989839143997644,"(0.0, 0.0, 0.0, 0.0, 0.0, 0.0, 0.0, 0.0, 0.0)",-0.347059,0.009186,0.073107,"(0.0, 0.0, 0.0, 0.0, 0.0, 0.0, 0.0, 0.0, 0.0)",-0.375,-0.413,-10.244,"(0.0, 0.0, 0.0, 0.0, 0.0, 0.0, 0.0, 0.0, 0.0)",0,0,0,,0.2518,0.1385,0.3563,"(0.0, 0.0, 0.0, 0.0, 0.0, 0.0, 0.0, 0.0, 0.0)","b'$VNYMR,+004.278,-002.537,+001.307,+00.2518,+00.1385,+00.3563,-00.375,-00.413,-10.244,-00.347059,+00.009186,+00.073107*69\r\n'"
1678087507.8961372,0,1678087507,874894142,imu1_frame,0,0,0,,0.007993662106667958,-0.021936361641410364,0.03816139687042795,0.9989988013971586,"(0.0, 0.0, 0.0, 0.0, 0.0, 0.0, 0.0, 0.0, 0.0)",-0.387165,-0.007605,0.034964,"(0.0, 0.0, 0.0, 0.0, 0.0, 0.0, 0.0, 0.0, 0.0)",-0.549,-0.305,-10.449,"(0.0, 0.0, 0.0, 0.0, 0.0, 0.0, 0.0, 0.0, 0.0)",0,0,0,,0.2517,0.1258,0.3516,"(0.0, 0.0, 0.0, 0.0, 0.0, 0.0, 0.0, 0.0, 0.0)","b'$VNYMR,+004.357,-002.547,+000.820,+00.2517,+00.1258,+00.3516,-00.549,-00.305,-10.449,-00.387165,-00.007605,+00.034964*6B\r\n'"
1678087507.9442284,0,1678087507,899759054,imu1_frame,0,0,0,,0.00407639816701034,-0.022126333257761026,0.03905108631424291,0.9989838942706875,"(0.0, 0.0, 0.0, 0.0, 0.0, 0.0, 0.0, 0.0, 0.0)",-0.374423,-0.013426,0.075374,"(0.0, 0.0, 0.0, 0.0, 0.0, 0.0, 0.0, 0.0, 0.0)",-0.569,-0.255,-10.321,"(0.0, 0.0, 0.0, 0.0, 0.0, 0.0, 0.0, 0.0, 0.0)",0,0,0,,0.2526,0.124,0.3585,"(0.0, 0.0, 0.0, 0.0, 0.0, 0.0, 0.0, 0.0, 0.0)","b'$VNYMR,+004.469,-002.552,+000.368,+00.2526,+00.1240,+00.3585,-00.569,-00.255,-10.321,-00.374423,-00.013426,+00.075374*6F\r\n'"
